id,obj_id,scn_id,trial_id,rating,rt
1,512,23,23512,-55.46875,5339.672602
1,701,19,19701,-28.64583333,2855.839942
1,102,53,53102,-100,3656.276432
1,205,58,58205,32.55208333,1867.116539
1,708,46,46708,-100,1896.760736
1,303,77,77303,-100,2426.258229
1,607,14,14607,44.79166667,1857.402673
1,505,26,26505,-13.54166667,2094.369097
1,309,23,23309,100,2879.165899
1,302,48,48302,60.15625,1794.842112
1,607,53,53607,-100,1325.720012
1,704,33,33704,0,1172.451016
1,313,68,68313,-100,2237.404725
1,408,55,55408,-100,1608.191585
1,407,45,45407,100,1456.014719
1,704,67,67704,-100,1080.697841
1,309,47,47309,-87.23958333,2629.165447
1,704,51,51704,-100,1279.956472
1,613,32,32613,-100,2166.581341
1,409,38,38409,-100,1342.007794
1,601,49,49601,-100,1288.310457
1,708,34,34708,-100,1000.741671
1,608,68,68608,100,1327.265236
1,703,55,55703,-100,1289.128499
1,210,59,59210,100,1451.747922
1,507,52,52507,76.30208333,1923.136088
1,612,18,18612,100,1448.728111
1,614,16,16614,100,1180.889824
1,517,16,16517,-100,1793.180069
1,602,61,61602,100,1224.323908
1,203,39,39203,-40.10416667,3307.259742
1,712,21,21712,-100,1755.174038
1,108,25,25108,-100,1230.275991
1,515,75,75515,-100,1546.687837
1,310,19,19310,27.08333333,4346.68663
1,208,76,76208,-100,1177.18811
1,609,25,25609,-100,1529.433801
1,509,11,11509,-100,1046.312625
1,109,34,34109,-100,2645.250076
1,406,69,69406,-100,1262.821066
1,517,61,61517,-64.84375,1452.664069
1,703,43,43703,-79.94791667,1178.68564
1,508,56,56508,22.91666667,2132.13364
1,213,33,33213,65.88541667,3638.815923
1,407,78,78407,-100,1116.283857
1,406,74,74406,-100,3910.115945
1,307,14,14307,-100,1252.174149
1,510,58,58510,31.51041667,1274.378092
1,108,52,52108,22.13541667,2712.777146
1,603,49,49603,-100,1125.055618
1,204,23,23204,-59.89583333,1923.096544
1,101,36,36101,-76.30208333,1376.368559
1,502,55,55502,12.76041667,3220.445606
1,702,26,26702,-100,939.072202
1,406,34,34406,-100,1017.56616
1,516,73,73516,-100,963.8818036
1,208,32,32208,-100,966.8339979
1,409,42,42409,100,1129.906816
1,302,61,61302,-100,1173.752034
1,509,76,76509,-100,1172.611303
1,109,79,79109,-100,1151.509151
1,612,72,72612,-100,1605.079706
1,702,61,61702,-100,1152.018087
1,206,44,44206,33.07291667,2470.993936
1,210,49,49210,-100,1679.845387
1,515,49,49515,-96.875,1176.614576
1,304,66,66304,-100,1070.178309
1,611,26,26611,-100,1217.948617
1,710,27,27710,-100,1465.631084
1,313,72,72313,-100,782.310077
1,110,49,49110,-100,1036.021903
1,205,62,62205,-88.02083333,1606.573915
1,707,25,25707,-100,1133.706634
1,211,22,22211,95.3125,2078.73273
1,512,55,55512,93.48958333,1303.641342
1,604,77,77604,-100,1482.101793
1,406,55,55406,-100,1295.639929
1,202,42,42202,-100,1433.17536
1,310,59,59310,-100,878.5914592
1,707,39,39707,-100,858.0857827
1,505,13,13505,-95.05208333,1027.996945
1,105,78,78105,-73.69791667,1229.653555
1,507,46,46507,-51.82291667,1169.043616
1,402,27,27402,-100,1218.171692
1,411,48,48411,100,1027.073856
1,601,69,69601,100,1386.381871
1,109,11,11109,100,1230.896314
1,402,66,66402,-100,1210.255102
1,201,43,43201,-52.60416667,1835.706459
1,710,49,49710,-100,1137.978864
1,712,57,57712,-100,1466.997606
1,304,46,46304,-91.92708333,1497.109687
1,207,35,35207,-100,2445.848967
1,307,39,39307,100,1399.739193
1,513,16,16513,-100,1503.740654
1,505,74,74505,-100,1349.048385
1,515,67,67515,-100,1220.751089
1,110,13,13110,99.21875,1141.241069
1,610,35,35610,-100,988.3557364
1,304,26,26304,-100,1631.875247
1,207,72,72207,-36.45833333,1092.25215
1,102,73,73102,-77.08333333,1186.56329
1,203,11,11203,-100,1351.217856
1,509,43,43509,-100,1253.18357
1,306,56,56306,-100,1017.801008
1,301,69,69301,-100,1116.052934
1,103,19,19103,-86.71875,1673.443231
1,710,35,35710,-84.63541667,1107.377165
1,713,31,31713,-100,1321.351791
1,306,67,67306,-100,844.5440248
1,509,53,53509,-100,1244.029051
1,709,18,18709,-100,1173.502093
1,708,18,18708,-100,1240.348769
1,706,77,77706,100,1130.267841
1,503,32,32503,-100,1252.591018
1,506,49,49506,26.30208333,1577.27565
1,302,17,17302,-68.22916667,1543.836464
1,106,53,53106,-65.36458333,1399.422843
1,308,15,15308,-97.65625,1347.242958
1,305,35,35305,100,1494.060294
1,708,22,22708,-100,1070.073262
1,510,21,21510,-85.15625,1632.11915
1,607,36,36607,-100,1498.111562
1,212,22,22212,59.63541667,2470.14933
1,712,15,15712,-100,703.6223244
1,105,38,38105,22.13541667,2347.397209
1,607,78,78607,-100,1559.414874
1,310,24,24310,28.125,1620.413609
1,516,37,37516,-89.84375,1363.689217
1,401,38,38401,-83.07291667,1208.715614
1,312,23,23312,-70.57291667,1921.915666
1,314,16,16314,-100,1452.216108
1,508,63,63508,-100,937.362163
1,305,69,69305,-100,1420.919225
1,301,48,48301,-100,1707.019763
1,109,47,47109,-100,1181.730807
1,511,22,22511,-100,1376.969865
1,411,17,17411,-100,965.3760124
1,506,21,21506,-100,1067.528277
1,511,68,68511,-100,892.3330486
1,605,46,46605,-92.70833333,921.9841886
1,103,59,59103,-100,1272.607379
1,705,52,52705,-100,1006.141047
1,517,42,42517,-100,804.0618331
1,404,19,19404,-100,797.0731619
1,510,31,31510,-100,864.2063034
1,408,43,43408,98.17708333,1706.51626
1,206,69,69206,-100,699.0424989
1,608,46,46608,-100,1255.0382
1,309,15,15309,-29.16666667,1944.397321
1,307,52,52307,-100,1416.124173
1,410,13,13410,-100,969.8888248
1,512,35,35512,-52.08333333,1165.902155
1,207,29,29207,100,1179.707739
1,702,12,12702,-100,1004.7217
1,507,38,38507,-100,905.2505592
1,703,13,13703,-100,1018.22482
1,102,64,64102,-72.39583333,2426.547714
1,707,46,46707,-100,1737.073886
1,301,14,14301,-100,868.0906426
1,209,71,71209,-100,852.8759746
1,104,42,42104,-100,1249.314626
1,701,43,43701,-100,915.7577148
1,203,43,43203,-100,821.2739111
1,307,23,23307,-90.625,991.7414023
1,613,21,21613,-100,990.4805315
1,507,62,62507,-100,833.0703123
1,508,17,17508,-100,1116.553721
1,402,71,71402,-100,1108.247429
1,503,73,73503,-100,706.7049224
1,312,72,72312,-100,869.9419522
1,609,32,32609,-92.96875,969.4091687
1,519,35,35519,-100,706.9950102
1,612,66,66612,100,1202.932272
1,606,24,24606,-100,1179.656724
1,514,49,49514,-94.53125,1288.097646
1,211,19,19211,-69.27083333,1451.171369
1,405,62,62405,-100,1023.904624
1,211,55,55211,40.36458333,1659.338805
1,312,67,67312,-95.05208333,1233.042541
1,402,13,13402,-74.73958333,1021.420313
1,110,26,26110,100,1368.988677
1,406,12,12406,-92.44791667,4401.540092
1,510,17,17510,-97.91666667,1053.067656
1,519,63,63519,-100,1066.782078
1,205,48,48205,-100,1202.079516
1,312,51,51312,15.88541667,1754.663592
1,203,28,28203,100,1985.579828
1,107,63,63107,100,1717.221436
1,202,79,79202,-100,1174.434238
1,504,71,71504,0,1226.286302
1,405,53,53405,-100,1498.969449
1,211,63,63211,-100,1284.72828
1,705,66,66705,-100,983.9389155
1,208,16,16208,-100,950.5628187
1,209,62,62209,-100,1328.338047
1,204,18,18204,-100,954.9880916
1,708,61,61708,-100,1226.703172
1,404,61,61404,-100,853.2843917
1,510,42,42510,-100,639.1712122
1,511,35,35511,-95.83333333,794.7162362
1,301,29,29301,-100,1800.086332
1,606,75,75606,-100,782.6074095
1,314,43,43314,-100,1117.193061
1,306,34,34306,-100,853.5255781
1,205,18,18205,-40.36458333,1020.948506
1,706,66,66706,-100,1005.442542
1,208,29,29208,-100,706.7508052
1,608,17,17608,-100,1544.617377
1,710,61,61710,-100,1381.688245
1,605,25,25605,-100,1410.890518
1,713,65,65713,-100,985.131264
1,403,54,54403,-100,1197.022751
1,212,61,61212,-100,1266.287631
1,702,47,47702,-100,1473.643062
1,407,67,67407,-97.13541667,1472.220998
1,304,14,14304,-94.53125,1348.80901
1,105,56,56105,-91.66666667,1517.106729
1,408,33,33408,-97.13541667,3236.11065
1,105,27,27105,100,1348.892022
1,408,74,74408,-100,1251.688154
1,708,79,79708,0,951.6154057
1,108,65,65108,-87.23958333,3346.865935
1,210,79,79210,-95.83333333,1341.018899
1,604,11,11604,100,1349.543436
1,404,58,58404,-100,3153.337821
1,201,22,22201,100,1077.731761
1,104,38,38104,-100,1033.811983
1,310,39,39310,100,1220.317617
1,306,74,74306,-100,991.8702966
1,514,56,56514,100,1051.0953
1,306,41,41306,-100,884.9589017
1,704,15,15704,-95.83333333,1725.377099
1,106,62,62106,-99.47916667,1414.463941
1,401,64,64401,-100,1645.910547
1,310,43,43310,-95.05208333,1049.071628
1,501,64,64501,-72.91666667,1242.573179
1,611,52,52611,-100,1083.544384
1,514,27,27514,-98.95833333,1773.566088
1,302,32,32302,100,1050.874037
1,508,45,45508,-100,861.4826174
1,210,39,39210,-77.86458333,1723.248983
1,712,45,45712,-100,904.2737391
1,209,41,41209,-100,1130.414545
1,517,74,74517,-89.0625,1166.822225
1,704,74,74704,100,1092.622835
1,106,28,28106,-100,2591.456748
1,705,14,14705,-81.25,1220.867003
1,514,14,14514,-100,3853.924638
1,410,68,68410,-100,2454.624048
1,212,45,45212,-100,1387.683191
1,410,25,25410,-100,1285.86086
1,403,67,67403,-100,782.5962406
1,401,27,27401,-100,749.1132852
1,204,42,42204,-91.66666667,3231.30775
1,208,53,53208,-83.85416667,1434.41178
1,514,71,71514,-100,1979.933228
1,504,64,64504,-100,1452.177168
1,401,58,58401,-97.91666667,1389.080201
1,410,33,33410,-100,1335.447765
1,314,76,76314,-100,1148.290112
1,507,25,25507,33.59375,1770.361538
1,504,46,46504,-84.375,1717.70411
1,603,71,71603,-100,1696.545208
1,402,43,43402,100,1307.922627
1,712,37,37712,-100,920.1573296
1,104,18,18104,100,1072.131044
1,307,43,43307,-100,860.3144178
1,703,67,67703,-100,1156.247453
1,606,46,46606,-100,982.0969636
1,502,36,36502,-89.32291667,1505.975024
1,105,68,68105,100,1658.437752
1,104,74,74104,-100,1065.796504
1,601,36,36601,-100,2126.477078
1,513,28,28513,28.38541667,2058.230978
1,405,38,38405,-76.5625,1582.749586
1,201,14,14201,-82.8125,2778.779216
1,608,74,74608,-100,1177.855222
1,108,32,32108,-100,1674.505477
1,605,52,52605,-100,1272.740198
1,501,45,45501,-100,2420.85191
1,603,55,55603,-100,1509.348616
1,611,63,63611,-100,3407.185182
1,608,37,37608,-100,2937.4817
1,516,21,21516,-100,1429.473948
1,213,21,21213,-100,1926.321922
1,311,54,54311,41.92708333,2381.211607
1,212,59,59212,46.09375,1647.606398
1,210,62,62210,-100,1230.121137
1,108,13,13108,100,1135.244009
1,701,51,51701,-100,1642.089598
1,501,57,57501,100,1411.003716
1,104,52,52104,-100,906.5874988
1,311,35,35311,100,2086.89443
1,601,73,73601,-100,875.2809565
1,709,49,49709,-100,2124.719647
1,407,39,39407,-100,1295.743769
1,507,12,12507,-100,1471.380921
1,407,25,25407,-100,1226.066246
1,506,15,15506,-100,1533.667694
1,504,37,37504,77.86458333,2956.706583
1,109,28,28109,-52.34375,2742.350406
1,603,27,27603,-100,938.9390816
1,709,62,62709,-100,930.3994518
1,212,71,71212,-100,1163.871238
1,411,35,35411,-100,1689.311728
1,501,78,78501,-100,2507.098246
1,309,69,69309,-100,1514.431944
1,203,78,78203,-100,2607.149261
1,209,34,34209,-100,1111.90809
1,106,38,38106,-100,1594.098932
1,201,75,75201,-100,1564.997178
1,107,58,58107,-100,1639.098464
1,519,19,19519,-100,1561.744632
1,206,55,55206,-100,1486.147628
1,205,23,23205,100,1351.976129
1,209,26,26209,72.91666667,2126.521754
1,308,23,23308,-100,1184.899133
1,107,33,33107,-100,713.8451275
1,204,51,51204,46.09375,1744.477314
1,516,52,52516,83.59375,1486.172984
1,518,22,22518,-100,1355.866505
1,107,12,12107,100,1468.478835
1,106,19,19106,0,808.8535645
1,712,72,72712,100,1828.921242
1,514,37,37514,-37.5,1305.128004
1,602,44,44602,-100,1294.291519
1,515,57,57515,100,1369.150474
1,411,74,74411,-100,2914.517974
1,502,28,28502,-100,1191.997078
1,703,36,36703,-100,1001.531036
1,108,44,44108,-100,984.2450019
1,203,52,52203,6.510416667,2373.555523
1,305,19,19305,-100,1239.271128
1,302,25,25302,19.01041667,3170.574953
1,509,29,29509,-81.77083333,1808.922389
1,408,21,21408,-69.53125,1556.69149
1,501,28,28501,24.47916667,1672.116252
1,108,73,73108,-100,960.1130769
1,706,55,55706,-100,1471.640822
1,604,44,44604,-99.73958333,1015.559996
1,707,54,54707,-100,1462.483284
1,706,11,11706,-100,1875.034035
1,518,76,76518,-100,1425.65964
1,606,12,12606,0,5373.995937
1,103,43,43103,-100,1734.854307
1,301,77,77301,-100,1316.846827
1,312,34,34312,90.625,2214.912808
1,613,75,75613,-100,1032.07689
1,102,12,12102,100,1249.355377
1,608,27,27608,-100,935.4999864
1,101,28,28101,27.08333333,2276.44976
1,508,74,74508,-100,1386.636038
1,605,68,68605,100,1237.670664
1,304,58,58304,40.10416667,2282.448027
1,707,79,79707,100,1545.62227
1,516,17,17516,-61.45833333,1503.225378
1,109,69,69109,-84.375,2745.913263
1,407,51,51407,-100,2070.882851
1,405,48,48405,100,1564.293843
1,710,59,59710,-100,1527.1134
1,705,78,78705,96.09375,3647.363401
1,701,78,78701,100,1964.000435
1,612,35,35612,-100,1883.691994
1,403,32,32403,-100,6150.758122
1,602,13,13602,69.27083333,1307.775319
1,103,68,68103,36.97916667,1675.084445
1,512,69,69512,-100,961.5278964
1,207,67,67207,-100,1119.965346
1,706,46,46706,-100,1693.961283
1,302,51,51302,40.625,3099.581923
1,608,55,55608,-100,1296.635163
1,406,45,45406,100,1637.202479
1,505,65,65505,-100,1990.914305
1,202,67,67202,-100,1665.957094
1,513,48,48513,-100,1740.803069
1,303,39,39303,-100,1360.424597
1,210,17,17210,-85.15625,1123.967411
1,706,27,27706,-100,1703.839966
1,106,46,46106,-100,919.9264064
1,207,49,49207,-94.53125,2464.340329
1,713,53,53713,-93.75,1658.547327
1,506,35,35506,-97.65625,1875.762726
1,614,43,43614,-100,2606.103918
1,604,37,37604,-100,1588.746646
1,505,35,35505,-100,6222.915428
1,601,23,23601,-100,1047.840642
1,614,59,59614,-100,1441.993908
1,519,75,75519,-100,967.013303
1,102,41,41102,-100,838.7428723
1,314,62,62314,-100,965.9030606
1,313,59,59313,30.98958333,1785.656501
1,711,21,21711,-100,2705.141588
1,602,24,24602,-100,1363.101495
1,405,29,29405,-100,1287.079169
1,211,31,31211,-97.39583333,1862.087546
1,107,25,25107,-100,1172.732953
1,506,76,76506,-100,2531.46351
1,303,41,41303,-100,2940.340317
1,517,51,51517,-88.02083333,2529.607672
1,609,19,19609,100,1434.063433
1,411,25,25411,-100,1381.759786
1,313,14,14313,-99.47916667,2823.74011
1,711,46,46711,-100,1357.766716
1,310,67,67310,-100,2755.703501
1,213,47,47213,-96.875,2039.64302
1,606,32,32606,-100,3461.05307
1,110,74,74110,-80.72916667,1075.323217
1,513,71,71513,-100,1092.856173
1,613,18,18613,-96.875,1168.64516
1,106,71,71106,-100,1747.219413
1,304,71,71304,-100,1008.419187
1,403,14,14403,-100,2200.36827
1,309,31,31309,100,1460.702912
1,504,53,53504,100,1943.071852
1,310,75,75310,-48.17708333,1093.216594
1,202,53,53202,94.53125,1646.890385
1,408,69,69408,-100,1292.270262
1,510,75,75510,-86.19791667,1404.113451
1,501,35,35501,-100,1659.030002
1,709,28,28709,-100,2273.043869
1,410,71,71410,-100,1613.111003
1,101,72,72101,-100,1054.334262
1,705,41,41705,-100,2052.444012
1,403,27,27403,-100,1834.81416
1,204,39,39204,-53.125,1800.344121
1,703,79,79703,100,1536.466241
1,407,19,19407,-100,946.7959032
1,204,64,64204,-98.69791667,2841.337362
1,301,37,37301,100,1910.90048
1,702,72,72702,100,2181.703338
1,303,58,58303,-100,1948.404517
1,511,74,74511,-100,1540.055663
1,711,12,12711,-100,1488.038481
1,405,17,17405,-100,2026.798861
1,502,79,79502,-100,1490.017176
1,305,28,28305,-100,1464.596307
1,209,12,12209,-100,1655.313195
1,517,39,39517,-98.17708333,3551.827915
1,201,51,51201,51.04166667,3763.806942
1,607,43,43607,-100,1390.217913
1,610,25,25610,-93.48958333,2094.702351
1,711,72,72711,100,1402.582114
1,104,64,64104,62.23958333,1928.835211
1,311,29,29311,100,2395.806858
1,604,56,56604,-100,1036.253732
1,519,25,25519,-100,1125.317029
1,308,47,47308,-100,1099.189807
1,411,53,53411,-76.5625,1383.762025
1,307,67,67307,-100,1321.269685
1,610,18,18610,86.97916667,2436.493409
1,611,45,45611,-95.3125,3589.033413
1,101,45,45101,-88.02083333,1511.144081
1,314,33,33314,43.75,2742.354933
1,614,27,27614,-89.58333333,1215.896269
1,609,61,61609,100,2161.805608
1,504,28,28504,63.28125,1455.398924
1,103,34,34103,-76.04166667,1835.447161
1,309,71,71309,-100,1461.777535
1,611,71,71611,-93.48958333,1535.310418
1,518,51,51518,40.36458333,2127.739156
1,613,42,42613,-100,1543.184446
1,513,69,69513,-98.17708333,1617.586989
1,613,68,68613,100,1827.557436
1,206,23,23206,64.0625,2009.085091
1,307,79,79307,-100,1381.467887
1,705,39,39705,-100,3372.227035
1,704,25,25704,-100,1465.324394
1,213,54,54213,-100,1063.807546
1,512,44,44512,-89.84375,3355.254332
1,519,42,42519,-100,1326.483115
1,201,66,66201,-100,1298.257058
1,404,71,71404,-100,1520.236115
1,303,19,19303,-95.05208333,1174.182789
1,612,51,51612,-54.42708333,1345.905113
1,701,23,23701,-100,2998.672116
1,606,65,65606,100,1097.601116
1,518,44,44518,-100,1102.798246
1,213,16,16213,-100,1302.212938
1,213,66,66213,-100,1951.797729
1,502,64,64502,-100,2876.153635
1,212,13,13212,-100,1937.584332
1,308,75,75308,-100,2701.223138
1,210,24,24210,95.57291667,2848.098431
1,202,39,39202,-100,2384.273075
1,515,31,31515,-66.40625,5986.033525
1,101,66,66101,100,2411.768328
1,706,31,31706,-100,1204.601559
1,505,53,53505,59.89583333,1759.455927
1,110,58,58110,-100,14222.67303
1,516,62,62516,-100,1134.727526
1,103,25,25103,-100,894.31446
1,404,22,22404,-100,1320.379197
1,311,44,44311,-100,932.1683536
1,109,51,51109,-100,751.8149355
1,605,72,72605,-100,1047.370343
1,103,71,71103,-100,801.6647599
1,611,11,11611,100,1227.002315
1,711,69,69711,-100,1164.398589
1,614,79,79614,-100,1509.687605
1,710,14,14710,-100,1489.178608
1,601,52,52601,-70.83333333,1200.73503
1,408,15,15408,-100,1256.125803
1,518,66,66518,-100,1454.803353
1,606,57,57606,-100,1981.342011
1,406,28,28406,-100,2644.194772
1,404,46,46404,79.16666667,5011.467675
1,510,69,69510,-100,1183.359042
1,206,12,12206,-100,1538.593753
1,612,42,42612,-100,977.8039055
1,503,41,41503,-100,1177.721799
1,403,49,49403,100,1162.885061
1,505,46,46505,-100,999.6948192
1,211,71,71211,-100,1404.832181
1,311,69,69311,14.0625,4557.732606
1,206,38,38206,-61.19791667,3633.3604
1,311,17,17311,94.53125,1380.255615
1,702,55,55702,-86.45833333,2817.533559
1,410,41,41410,100,2850.473166
1,306,27,27306,30.46875,2408.431262
1,602,56,56602,-100,2932.288494
1,101,11,11101,100,1425.528331
1,409,21,21409,-100,5525.793365
1,503,62,62503,-88.80208333,1602.764437
1,207,18,18207,-86.71875,1357.206765
1,710,77,77710,100,1947.407774
1,707,14,14707,-100,1331.615345
1,610,44,44610,-100,5669.29748
1,508,31,31508,-76.04166667,1079.435159
1,506,62,62506,-100,732.3558089
1,409,19,19409,-100,716.6231485
1,305,78,78305,-100,902.7016503
1,110,38,38110,-100,666.0295401
1,102,24,24102,-100,1101.112959
1,712,63,63712,-95.57291667,1528.924562
1,501,12,12501,-99.47916667,1441.097383
1,211,48,48211,-92.70833333,2186.38489
1,512,14,14512,-92.96875,1626.726113
1,105,17,17105,100,1098.419459
1,308,57,57308,-100,2187.623725
1,703,23,23703,-100,3743.940606
1,612,28,28612,-100,1384.407705
1,504,13,13504,-100,1109.984635
1,309,58,58309,68.48958333,1269.858337
1,701,34,34701,-100,1830.513555
1,306,16,16306,-93.48958333,3065.051211
1,711,55,55711,-91.92708333,2320.320636
1,401,44,44401,100,1951.677287
1,507,75,75507,-77.34375,8096.825033
1,514,63,63514,-100,626.6738912
1,711,34,34711,-100,724.4096366
1,502,48,48502,-100,1102.864051
1,512,75,75512,-100,1031.130558
1,607,21,21607,-78.64583333,1170.052131
1,704,44,44704,-100,899.6703685
1,603,19,19603,100,1060.993302
1,607,69,69607,100,985.2106533
1,410,58,58410,-100,1183.105781
1,213,71,71213,-100,964.3050118
1,518,31,31518,-100,891.2167689
1,515,15,15515,-100,1323.395386
1,503,29,29503,-100,1328.862077
1,308,66,66308,-100,1961.540876
1,511,49,49511,-100,1219.583191
1,713,71,71713,100,1855.667579
1,503,55,55503,-94.27083333,3763.06346
1,314,55,55314,-92.1875,2879.387163
1,303,24,24303,-90.625,6232.525756
1,107,49,49107,-32.03125,1622.909994
1,609,51,51609,-90.36458333,1696.418125
1,314,28,28314,-61.97916667,1794.63413
1,203,64,64203,-78.90625,1841.68269
1,303,64,64303,-100,759.9509779
1,409,74,74409,-100,4471.362205
1,105,47,47105,-100,7193.58909
1,509,39,39509,-98.17708333,2463.244576
1,609,75,75609,-100,983.2642576
1,709,79,79709,69.01041667,1868.499362
1,609,46,46609,-100,1327.523326
1,518,19,19518,-100,1178.940108
1,604,28,28604,-100,869.4224506
1,713,12,12713,-100,1095.453681
1,508,26,26508,-100,3221.083739
1,104,23,23104,-100,9756.300279
1,201,34,34201,-100,1482.628842
1,610,73,73610,-100,620.0214925
1,713,29,29713,-100,715.3236396
1,614,32,32614,-100,801.6224995
1,701,69,69701,-100,812.2663978
1,614,66,66614,100,2013.766946
1,516,47,47516,-100,2008.955895
1,305,46,46305,-100,4533.255353
1,603,66,66603,100,1178.887584
1,311,76,76311,10.9375,2107.265477
1,212,36,36212,-99.21875,3367.065525
1,511,16,16511,-100,982.1045101
1,312,16,16312,-100,3228.253526
1,610,61,61610,100,1198.714679
1,603,31,31603,-84.89583333,4781.173573
1,605,11,11605,100,3653.366196
1,702,37,37702,-100,1674.614147
1,204,78,78204,-100,782.5032676
1,207,56,56207,-100,878.1519505
1,313,38,38313,-100,1244.15704
1,110,67,67110,100,1171.725343
1,404,31,31404,-100,1061.379683
1,101,55,55101,-100,1049.809979
1,604,68,68604,100,2165.711983
1,519,51,51519,100,3240.232855
1,709,59,59709,-100,1221.150752
1,102,35,35102,-96.09375,1621.727305
1,411,62,62411,-100,1032.634426
1,511,56,56511,-100,1377.579623
1,503,15,15503,-80.20833333,1060.407693
1,509,63,63509,-48.95833333,2011.284446
1,709,34,34709,-46.61458333,1679.896703
1,602,73,73602,-73.17708333,1683.525971
1,312,41,41312,-95.57291667,5294.191603
1,506,51,51506,44.01041667,3093.327075
1,517,29,29517,-32.03125,2728.044639
1,208,44,44208,-87.23958333,1001.02874
1,409,62,62409,-96.35416667,4383.22894
1,708,55,55708,-92.1875,1972.059805
1,403,71,71403,-100,2484.874985
1,205,77,77205,-100,778.2657518
1,602,39,39602,-86.71875,1282.880593
1,513,51,51513,-100,1098.091035
1,313,23,23313,-64.84375,1963.416939
1,208,69,69208,-70.3125,1683.848056
1,707,66,66707,-100,1223.10892
1,605,36,36605,-100,2027.861712
1,611,37,37611,-100,896.6834602
1,601,19,19601,92.70833333,1634.228249
1,502,12,12502,-85.41666667,6626.554656
1,515,24,24515,-79.42708333,3810.804186
1,402,38,38402,-92.96875,1360.53055
1,402,55,55402,-92.96875,1749.609544
1,302,74,74302,-56.77083333,3205.793304
1,610,52,52610,-100,1165.800428
1,202,12,12202,-86.19791667,5919.414149
1,401,78,78401,-90.10416667,851.4798704
1,313,49,49313,-100,1181.246321
1,409,59,59409,-91.66666667,2039.044431
1,205,31,31205,-92.70833333,5211.25758
1,713,48,48713,-88.54166667,1581.714507
1,209,54,54209,-98.95833333,4450.975764
1,301,54,54301,-100,4024.060686
1,206,72,72206,-65.88541667,2291.229145
1,401,13,13401,-100,1255.166491
1,613,52,52613,-100,1681.679491
1,304,38,38304,-55.46875,1843.207085
1,107,71,71107,-100,7340.426649
1,308,34,34308,100,1143.642972
1,705,29,29705,-100,4370.89402
1,305,55,55305,-100,2016.132927
1,513,34,34513,-100,1077.489367
1,405,71,71405,-65.625,1139.887225
1,202,28,28202,54.16666667,2303.815817
2,613,35,35613,44.53125,9171.15211
2,605,74,74605,-100,5445.387121
2,705,45,45705,67.44791667,3923.342258
2,102,77,77102,66.92708333,7971.40356
2,106,42,42106,29.42708333,6610.209521
2,108,17,17108,100,3807.664537
2,404,67,67404,-97.39583333,4177.802396
2,607,25,25607,100,4806.470679
2,509,19,19509,100,3537.619348
2,109,79,79109,-84.63541667,4899.558076
2,105,29,29105,100,8907.709212
2,202,29,29202,100,1989.089257
2,301,72,72301,82.8125,3485.801092
2,502,79,79502,-98.95833333,2707.824824
2,302,67,67302,14.32291667,3849.044461
2,614,43,43614,-91.92708333,6202.443258
2,710,68,68710,49.47916667,4818.426462
2,603,18,18603,100,3882.257251
2,307,29,29307,-78.38541667,5055.987249
2,208,22,22208,100,1446.409522
2,104,19,19104,100,2278.616514
2,303,79,79303,-100,1984.146897
2,516,45,45516,-100,1243.174786
2,505,33,33505,100,2408.419791
2,407,44,44407,100,1763.504478
2,409,68,68409,-100,1666.443994
2,101,26,26101,88.02083333,2067.388515
2,602,75,75602,-100,2231.764163
2,203,62,62203,7.552083333,2978.194513
2,508,49,49508,36.19791667,2717.142046
2,713,66,66713,-100,2622.686316
2,106,61,61106,-100,3994.115534
2,311,45,45311,50,3608.754856
2,501,52,52501,100,1515.799673
2,202,71,71202,-38.54166667,1679.560129
2,604,23,23604,24.21875,2843.617917
2,406,51,51406,44.01041667,3724.60977
2,411,29,29411,-100,1925.229791
2,706,41,41706,-3.125,4535.879425
2,406,61,61406,-100,1599.980983
2,103,55,55103,100,1257.941192
2,601,25,25601,-100,1453.463093
2,201,68,68201,2.083333333,2264.735767
2,302,75,75302,-95.05208333,4169.896975
2,518,61,61518,-61.97916667,1464.756293
2,314,59,59314,9.114583333,4217.954956
2,513,23,23513,2.864583333,4545.292337
2,604,34,34604,100,4639.53103
2,201,35,35201,77.08333333,1871.792356
2,614,13,13614,100,1360.086815
2,405,37,37405,73.4375,2957.527341
2,206,28,28206,100,1245.485829
2,104,65,65104,100,1421.368997
2,105,56,56105,-58.07291667,5318.120074
2,305,39,39305,100,1665.404387
2,507,53,53507,100,1164.871604
2,611,19,19611,100,1650.246469
2,213,41,41213,-49.47916667,2430.376812
2,207,27,27207,100,1154.302265
2,103,37,37103,-61.71875,2537.582521
2,509,67,67509,8.072916667,4074.402543
2,107,13,13107,100,1854.53832
2,110,44,44110,-63.02083333,1439.950314
2,612,59,59612,-34.375,4277.697952
2,509,76,76509,-65.10416667,1751.786561
2,706,32,32706,-70.57291667,1948.487227
2,213,66,66213,-70.05208333,2970.81131
2,306,46,46306,-67.96875,1676.428026
2,404,79,79404,53.90625,1920.348407
2,507,73,73507,-88.02083333,1505.929745
2,401,59,59401,-82.8125,2761.213056
2,518,29,29518,-57.29166667,3458.936123
2,312,61,61312,-19.01041667,1282.298606
2,406,76,76406,-38.54166667,1327.708367
2,608,15,15608,100,1045.52809
2,103,75,75103,-100,1149.905367
2,608,54,54608,-40.36458333,2252.514346
2,709,28,28709,-39.0625,3631.30292
2,608,24,24608,-56.25,1323.450928
2,519,74,74519,-58.59375,1055.059029
2,307,39,39307,-62.5,1201.889646
2,612,42,42612,-64.32291667,1359.711301
2,603,63,63603,61.45833333,1376.290679
2,314,74,74314,-95.3125,1486.677091
2,610,45,45610,-61.19791667,1322.918145
2,401,75,75401,19.79166667,1597.759894
2,401,36,36401,35.41666667,2261.920617
2,403,59,59403,33.59375,2917.737617
2,713,72,72713,100,1873.374708
2,409,27,27409,-62.5,1382.806335
2,507,26,26507,100,1346.993622
2,605,69,69605,100,1411.96001
2,411,33,33411,-100,1117.986954
2,308,58,58308,-100,2818.024988
2,210,28,28210,48.17708333,3004.760036
2,507,39,39507,-23.4375,2044.659335
2,506,11,11506,-1.041666667,2633.7335
2,614,23,23614,-86.45833333,1247.52399
2,105,19,19105,100,1543.622143
2,608,31,31608,-54.6875,1098.77173
2,611,37,37611,-80.20833333,1912.259757
2,311,73,73311,100,3155.744856
2,310,19,19310,49.21875,2037.77873
2,310,26,26310,100,1563.22737
2,206,42,42206,100,1969.081952
2,312,49,49312,53.38541667,2765.227497
2,606,25,25606,-100,1931.629231
2,405,19,19405,-100,2114.121632
2,514,19,19514,11.19791667,2027.284555
2,517,42,42517,15.36458333,1204.162956
2,603,71,71603,-89.58333333,1306.346312
2,104,74,74104,-94.01041667,1331.179459
2,101,56,56101,5.989583333,1588.730043
2,703,32,32703,5.729166667,3704.649555
2,304,74,74304,-100,1064.786177
2,203,24,24203,100,1453.666849
2,209,22,22209,100,1109.220325
2,407,74,74407,-29.6875,2027.655239
2,705,17,17705,-75.52083333,1678.880038
2,102,63,63102,54.42708333,1499.013218
2,707,25,25707,-61.45833333,1841.202431
2,709,43,43709,7.03125,3615.852499
2,505,77,77505,-100,1343.796015
2,302,21,21302,100,1162.089055
2,613,27,27613,-100,1327.548079
2,706,59,59706,-100,2077.306741
2,701,32,32701,16.66666667,1872.905315
2,201,41,41201,60.15625,2317.072619
2,516,78,78516,-100,1182.248196
2,107,29,29107,-100,2037.608179
2,503,66,66503,67.96875,4071.509513
2,610,55,55610,-12.23958333,2150.282089
2,508,22,22508,-5.729166667,1692.56367
2,308,21,21308,-69.01041667,2131.968522
2,411,74,74411,4.166666667,1739.212869
2,607,63,63607,62.5,1784.908189
2,507,13,13507,-95.3125,1187.945206
2,707,32,32707,-58.07291667,1153.54218
2,301,28,28301,61.71875,1764.599024
2,307,45,45307,-100,950.4339243
2,312,26,26312,-60.67708333,1467.662303
2,504,48,48504,-70.3125,2703.539917
2,602,62,62602,75.26041667,1151.357315
2,307,15,15307,-98.4375,2332.766641
2,512,37,37512,-79.6875,4567.322106
2,501,34,34501,-64.32291667,2976.049493
2,103,18,18103,-63.54166667,1362.415668
2,203,18,18203,-72.13541667,1213.037651
2,303,25,25303,-76.04166667,1490.310886
2,517,14,14517,-52.60416667,1193.750887
2,210,19,19210,38.54166667,2491.095723
2,306,37,37306,100,1674.919328
2,508,79,79508,-95.57291667,1371.371865
2,204,47,47204,-89.0625,1714.391797
2,213,21,21213,55.72916667,3415.358655
2,102,39,39102,-98.17708333,1421.237386
2,711,23,23711,-80.20833333,2634.055585
2,411,69,69411,-70.05208333,1183.514802
2,510,65,65510,-77.08333333,2730.504801
2,210,67,67210,-86.97916667,2775.781743
2,402,15,15402,-90.10416667,2268.047778
2,502,65,65502,-93.22916667,3993.761452
2,209,38,38209,-88.28125,1675.353705
2,410,56,56410,-100,1369.549534
2,608,71,71608,-89.0625,1256.550521
2,212,57,57212,100,4296.361073
2,511,29,29511,5.729166667,1470.875304
2,207,68,68207,-59.375,1332.812524
2,702,37,37702,-5.729166667,3716.326118
2,302,51,51302,7.291666667,1682.956058
2,704,77,77704,-69.79166667,1417.392289
2,701,42,42701,45.3125,3338.170847
2,305,59,59305,45.83333333,1705.310328
2,211,53,53211,90.88541667,1217.109144
2,405,59,59405,21.09375,1586.322405
2,711,49,49711,-100,949.5712074
2,209,77,77209,-100,2184.295413
2,603,45,45603,-72.39583333,1171.462121
2,713,47,47713,-43.48958333,1768.313416
2,710,54,54710,-100,1540.648819
2,513,78,78513,-75.52083333,2421.552226
2,304,21,21304,8.854166667,1296.810845
2,601,11,11601,94.53125,2076.513151
2,306,72,72306,-100,1205.880542
2,301,14,14301,-100,1888.565227
2,608,45,45608,-100,2061.686071
2,313,46,46313,-100,1897.771063
2,308,71,71308,-100,2867.765539
2,308,66,66308,-100,1226.488851
2,306,28,28306,-100,2825.70009
2,110,36,36110,43.75,3167.039867
2,102,54,54102,-100,1217.40708
2,510,77,77510,-100,1119.513763
2,313,13,13313,26.30208333,2378.212624
2,408,57,57408,18.48958333,3427.991814
2,211,12,12211,-100,1483.603851
2,704,51,51704,-70.83333333,1223.60216
2,409,47,47409,100,2491.264765
2,206,53,53206,100,1289.820665
2,207,38,38207,-76.82291667,1408.839679
2,703,66,66703,88.02083333,3400.573233
2,711,36,36711,-95.3125,1579.679968
2,505,57,57505,100,1190.933322
2,106,24,24106,-100,1017.11669
2,517,59,59517,100,1355.984533
2,503,47,47503,-100,1045.713734
2,207,49,49207,-100,1481.280431
2,614,31,31614,-45.83333333,1332.501909
2,205,18,18205,32.8125,1605.292216
2,312,71,71312,-67.96875,1131.186402
2,203,77,77203,-66.14583333,1205.128909
2,709,77,77709,100,1443.077889
2,303,62,62303,-41.66666667,1142.760936
2,612,13,13612,100,1047.125535
2,708,17,17708,-100,1346.551094
2,302,15,15302,7.8125,1593.409483
2,106,56,56106,-100,1048.774598
2,403,67,67403,-100,1727.776889
2,604,68,68604,100,1177.879974
2,314,65,65314,41.14583333,3385.587677
2,704,67,67704,-100,1641.816415
2,409,11,11409,-13.80208333,2859.465888
2,110,67,67110,67.1875,1342.800781
2,102,23,23102,76.04166667,1720.086996
2,504,19,19504,76.04166667,1668.613767
2,514,31,31514,-5.208333333,3339.070995
2,706,74,74706,100,1299.662218
2,506,55,55506,100,1374.576716
2,206,71,71206,-51.04166667,1244.570287
2,614,71,71614,-27.34375,1128.563839
2,208,78,78208,-45.05208333,965.7186239
2,301,62,62301,-30.46875,1579.727963
2,110,17,17110,100,983.4182064
2,208,47,47208,-3.90625,1961.125215
2,504,28,28504,100,1191.185979
2,308,18,18308,-100,968.4815518
2,211,78,78211,-53.125,1635.464971
2,505,13,13505,13.54166667,1460.595148
2,605,49,49605,-100,1049.25033
2,501,67,67501,-100,1433.88926
2,208,31,31208,-75.26041667,2650.799779
2,508,64,64508,-100,1326.466513
2,518,55,55518,100,1026.567033
2,209,67,67209,-100,1014.886848
2,703,77,77703,100,1671.74436
2,605,33,33605,-85.9375,926.1033751
2,213,17,17213,4.6875,1736.857151
2,710,77,77710,100,1373.630384
2,513,69,69513,-100,1074.537474
2,107,53,53107,-100,2178.719146
2,708,49,49708,-100,1597.311632
2,511,77,77511,-100,1266.783587
2,210,49,49210,-80.72916667,2131.970031
2,506,72,72506,-100,1020.360783
2,601,56,56601,-85.67708333,1143.703042
2,606,32,32606,-85.15625,1246.966756
2,703,58,58703,-70.05208333,1514.68279
2,402,62,62402,-100,1180.191319
2,514,74,74514,-100,878.5467838
2,503,27,27503,-4.6875,2439.291654
2,101,49,49101,-100,2399.302703
2,210,38,38210,-100,868.6753462
2,606,58,58606,-62.76041667,1114.42802
2,614,65,65614,100,987.9225668
2,107,68,68107,84.63541667,2171.00601
2,515,16,16515,-5.989583333,3041.138436
2,109,26,26109,34.375,2233.80172
2,519,64,64519,-58.33333333,1082.383127
2,405,68,68405,-100,1191.229749
2,304,38,38304,-100,885.1077189
2,410,61,61410,-100,886.4132649
2,713,35,35713,-100,1300.035318
2,710,27,27710,-100,1603.982142
2,613,67,67613,100,2072.610096
2,309,31,31309,100,1637.336807
2,102,42,42102,-100,942.3431609
2,603,33,33603,-100,1938.02203
2,303,38,38303,95.3125,2121.413371
2,502,18,18502,-53.64583333,1250.356044
2,509,42,42509,-43.75,1450.123612
2,406,49,49406,100,1232.032516
2,610,34,34610,-100,1299.173204
2,608,69,69608,100,914.5578198
2,408,24,24408,-100,1453.561198
2,511,49,49511,-100,1336.631661
2,202,48,48202,15.10416667,1954.300152
2,410,26,26410,-100,1098.532657
2,407,56,56407,-100,1076.823765
2,202,39,39202,-100,729.1183564
2,609,75,75609,-100,1337.551731
2,514,61,61514,-100,1316.505121
2,401,62,62401,-63.28125,926.2805671
2,312,18,18312,88.02083333,1971.739229
2,309,79,79309,-100,1529.828332
2,611,43,43611,-100,1354.124771
2,302,47,47302,-100,2186.810513
2,516,24,24516,-33.33333333,1177.514421
2,706,12,12706,-92.44791667,1126.367201
2,107,77,77107,-100,1216.112099
2,501,44,44501,-100,900.1581748
2,709,63,63709,-100,1660.349132
2,705,32,32705,-100,863.7960752
2,517,72,72517,-84.63541667,988.2090323
2,104,23,23104,-100,954.399162
2,107,44,44107,-100,846.4925335
2,408,18,18408,-100,795.3875736
2,601,43,43601,-100,1799.328663
2,410,45,45410,100,1818.607579
2,312,35,35312,84.63541667,1170.152047
2,507,63,63507,-100,896.1989743
2,704,34,34704,-13.28125,2222.392907
2,109,63,63109,30.72916667,1573.814821
2,511,52,52511,100,1001.594125
2,313,22,22313,42.1875,2031.125426
2,516,14,14516,-36.71875,877.1295494
2,309,11,11309,38.28125,1588.485235
2,712,59,59712,-20.3125,1862.869062
2,711,79,79711,100,1032.855388
2,104,37,37104,-29.6875,1531.285714
2,519,33,33519,-29.6875,1215.456458
2,503,59,59503,100,1648.284377
2,712,36,36712,-100,1031.103692
2,311,14,14311,100,1761.238714
2,501,24,24501,-50,993.4179347
2,613,73,73613,-100,1047.949915
2,603,28,28603,-100,1034.388838
2,311,63,63311,-100,2479.321358
2,313,52,52313,35.9375,1733.730481
2,212,21,21212,100,2091.684049
2,515,78,78515,-100,3011.406398
2,304,42,42304,-73.69791667,1940.550714
2,710,14,14710,-86.97916667,1763.330003
2,402,45,45402,100,1093.179163
2,612,23,23612,-100,930.6107541
2,406,15,15406,-100,1070.929036
2,208,66,66208,16.14583333,1689.970991
2,203,31,31203,-100,5277.784888
2,404,48,48404,100,1043.272589
2,706,22,22706,-65.10416667,852.0295582
2,403,38,38403,-100,1716.70284
2,309,53,53309,100,910.326945
2,106,33,33106,-100,792.9992544
2,701,28,28701,-92.1875,2418.775413
2,515,27,27515,1.302083333,1496.384015
2,709,59,59709,-100,1364.423643
2,304,58,58304,87.23958333,1089.587025
2,606,64,64606,100,1134.979277
2,609,31,31609,-100,1228.738918
2,305,48,48305,-55.46875,1909.917924
2,605,27,27605,-70.57291667,1170.550805
2,312,51,51312,100,1363.46101
2,513,39,39513,-72.65625,1520.901717
2,509,21,21509,-46.35416667,1500.065504
2,505,49,49505,-22.39583333,1870.129709
2,707,17,17707,-19.79166667,1026.821803
2,402,38,38402,-82.8125,1149.79549
2,609,43,43609,-100,1026.249476
2,306,15,15306,-79.42708333,2080.643506
2,519,45,45519,-48.4375,1028.389062
2,101,77,77101,-79.6875,1274.547436
2,206,36,36206,-34.89583333,1709.760353
2,204,33,33204,76.04166667,1321.962153
2,309,21,21309,100,1384.580973
2,703,21,21703,-100,1249.847711
2,305,12,12305,-42.96875,1817.71709
2,502,26,26502,-26.04166667,1391.189602
2,108,52,52108,3.125,2977.685576
2,503,31,31503,-5.46875,1763.364717
2,401,13,13401,-100,1041.279707
2,519,57,57519,100,1198.809161
2,605,55,55605,-100,830.4975564
2,108,39,39108,-36.97916667,1157.517983
2,508,54,54508,100,1124.645691
2,305,24,24305,-100,846.5523018
2,607,17,17607,100,1029.767658
2,409,54,54409,11.19791667,2049.277195
2,705,78,78705,100,1668.936455
2,409,76,76409,-100,5848.845233
2,707,64,64707,-100,1670.520317
2,609,68,68609,100,1267.644493
2,110,77,77110,-100,1239.364101
2,208,56,56208,80.98958333,1355.474087
2,405,42,42405,-42.1875,1312.563127
2,703,42,42703,-72.65625,1615.707908
2,711,18,18711,-83.33333333,1494.891919
2,517,65,65517,2.083333333,2574.020086
2,610,24,24610,-100,1315.003668
2,512,25,25512,1.302083333,1561.630831
2,602,59,59602,-80.20833333,979.9513401
2,707,54,54707,-100,3318.940832
2,410,33,33410,-100,1201.73449
2,108,25,25108,-88.28125,1819.428639
2,104,57,57104,-96.09375,4177.295271
2,404,22,22404,-75.52083333,1731.933506
2,205,23,23205,100,1144.611943
2,109,46,46109,-100,1023.00659
2,406,31,31406,-100,756.4321916
2,511,17,17511,-98.4375,1106.350538
2,611,59,59611,-82.03125,1213.617827
2,501,17,17501,-100,1378.915657
2,711,51,51711,-70.05208333,1587.033286
2,408,39,39408,-100,1638.254462
2,704,46,46704,-100,873.4713036
2,504,52,52504,100,1597.018525
2,408,43,43408,100,2064.759915
2,516,62,62516,-83.07291667,1340.962753
2,101,67,67101,100,1117.056016
2,211,37,37211,1.822916667,4940.628896
2,613,15,15613,100,1285.884707
2,504,79,79504,-89.0625,1671.461819
2,710,35,35710,-65.88541667,1322.390191
2,602,35,35602,-66.66666667,1379.427311
2,609,11,11609,100,1085.433728
2,613,49,49613,-100,1630.11359
2,307,66,66307,-100,1428.7036
2,605,14,14605,100,936.4230754
2,203,45,45203,-100,992.1815147
2,110,27,27110,100,1168.685308
2,607,77,77607,-100,965.9534712
2,204,26,26204,-100,2401.27053
2,707,45,45707,-100,954.7481126
2,314,29,29314,-21.35416667,3318.868386
2,516,53,53516,100,1098.736714
2,515,57,57515,59.63541667,2265.61086
2,212,41,41212,-65.625,1098.229287
2,517,37,37517,1.5625,2339.908959
2,711,67,67711,-100,827.8125085
2,205,37,37205,-100,1838.808074
2,602,21,21602,-100,1153.864567
2,403,43,43403,100,1070.612384
2,512,61,61512,-100,911.5057097
2,601,79,79601,-100,1183.001639
2,604,47,47604,-100,1312.596331
2,502,43,43502,-100,1418.618144
2,708,38,38708,-100,1617.981822
2,515,32,32515,3.645833333,3041.756948
2,204,14,14204,-57.55208333,1717.117294
2,504,61,61504,-34.89583333,1986.19019
2,509,58,58509,93.75,2592.743579
2,411,51,51411,-100,1146.54717
2,212,79,79212,-100,926.4284787
2,505,27,27505,-40.625,2658.679542
2,509,36,36509,-18.75,1394.783249
2,309,69,69309,-21.09375,954.3650518
2,710,44,44710,-100,960.1390369
2,401,43,43401,100,1039.726937
2,712,43,43712,-100,2087.315224
2,607,46,46607,-100,993.1046037
2,508,13,13508,-100,1087.374388
2,206,11,11206,6.510416667,2248.261737
2,604,57,57604,-3.645833333,2605.72931
2,607,58,58607,-100,1975.833965
2,705,62,62705,-100,965.5900314
2,712,73,73712,100,1132.340716
2,702,48,48702,-100,1433.265012
2,205,45,45205,-100,996.2563278
2,205,72,72205,-87.5,864.9621618
2,708,76,76708,100,1344.471276
2,407,18,18407,-100,1092.396741
2,506,29,29506,69.53125,2215.529206
2,511,33,33511,-3.90625,1631.325559
2,502,51,51502,100,1522.026751
2,701,12,12701,-67.1875,1271.430426
2,702,24,24702,-90.625,1341.193677
2,708,62,62708,-100,1958.1697
2,513,48,48513,-100,1216.738761
2,106,18,18106,20.05208333,1446.698704
2,514,24,24514,-58.33333333,1399.294552
2,311,56,56311,-28.64583333,1370.866551
2,612,36,36612,-100,1079.255854
2,503,79,79503,-100,890.1110544
2,404,19,19404,-100,1060.545341
2,512,56,56512,6.770833333,3822.978215
2,602,14,14602,100,1157.343206
2,606,44,44606,-100,1048.771881
2,403,79,79403,-100,2313.677897
2,601,67,67601,100,964.2633551
2,508,39,39508,-100,1222.565572
2,603,54,54603,-43.22916667,1508.467183
2,201,12,12201,31.25,1677.091515
2,503,18,18503,100,1329.804485
2,304,64,64304,-87.23958333,887.43144
2,713,56,56713,-100,1100.797515
2,701,77,77701,100,901.8926645
2,213,52,52213,43.75,1409.210363
2,212,39,39212,-56.51041667,1023.635063
2,201,71,71201,-100,1289.091672
2,411,46,46411,100,1119.007845
2,107,32,32107,-100,1363.302232
2,212,12,12212,-44.53125,1358.227959
2,513,13,13513,4.427083333,1933.392397
2,209,59,59209,-15.36458333,1176.002403
2,712,25,25712,-100,1025.35295
2,313,76,76313,-100,1213.251972
2,514,49,49514,-100,1012.127542
2,210,53,53210,2.083333333,2207.745133
2,706,62,62706,-100,1042.769991
2,606,12,12606,88.80208333,1440.638857
2,407,31,31407,-100,1514.736521
2,204,77,77204,-100,1034.468831
2,517,26,26517,-47.39583333,2176.60069
2,303,14,14303,-53.64583333,1221.947663
2,612,63,63612,100,997.7677426
2,408,71,71408,-54.94791667,1418.804391
2,314,35,35314,100,1383.675391
2,518,77,77518,-100,803.7717453
2,310,69,69310,-100,1557.037422
2,306,56,56306,-100,1482.155524
2,512,17,17512,-100,944.275671
2,301,37,37301,100,1867.968691
2,606,72,72606,-100,979.1969911
2,510,52,52510,100,1302.141096
2,402,77,77402,-100,1437.881363
2,108,41,41108,-100,816.6980098
2,310,73,73310,-100,896.8543131
2,205,59,59205,-10.15625,1440.850763
2,701,66,66701,-100,927.2136175
2,110,58,58110,-49.21875,850.7421237
2,610,13,13610,100,812.1574262
2,709,18,18709,-100,1321.135659
2,613,56,56613,-100,1224.844316
2,609,26,26609,-100,1380.688483
2,501,75,75501,-100,1643.143091
2,514,52,52514,-100,1287.520187
2,410,19,19410,-100,888.2552169
2,709,31,31709,-100,768.6210113
2,209,48,48209,-100,889.4517914
2,703,16,16703,-100,1089.927825
2,411,16,16411,-100,872.1944343
2,519,12,12519,-67.44791667,1457.249931
2,504,39,39504,-100,1794.60334
2,206,67,67206,4.166666667,2326.274228
2,604,14,14604,46.09375,2553.408456
2,307,71,71307,-100,894.6181316
2,612,79,79612,-100,990.70421
2,103,28,28103,-100,1190.679759
2,511,65,65511,-100,2719.153342
2,515,61,61515,-100,1029.486022
2,306,63,63306,-99.47916667,1974.324663
2,513,58,58513,-100,1531.28994
2,204,58,58204,-100,2373.046586
2,506,66,66506,-99.73958333,2555.244371
2,713,24,24713,-100,1244.242466
2,609,56,56609,-100,1043.323905
2,705,25,25705,-100,990.4044627
2,405,24,24405,-100,856.340426
2,307,59,59307,-100,887.7085478
2,210,71,71210,-100,1118.657385
2,401,28,28401,-100,792.5500862
2,207,74,74207,-100,1024.943024
2,505,67,67505,34.375,1734.960562
2,403,27,27403,-58.07291667,1241.844789
2,313,69,69313,-100,760.5619433
2,409,32,32409,-100,1068.022724
2,211,23,23211,95.3125,2539.371346
2,611,68,68611,100,1012.645233
2,103,66,66103,-89.0625,968.7453778
2,201,22,22201,100,958.4839365
2,702,65,65702,-100,890.4624199
2,611,26,26611,-100,968.9892809
2,310,59,59310,12.5,5218.942644
2,404,52,52404,-100,905.8117176
2,202,17,17202,-9.114583333,1506.517165
2,302,33,33302,100,1039.674413
2,301,54,54301,-100,1195.116503
2,207,19,19207,-100,855.3684357
2,518,45,45518,-100,823.9339047
2,708,52,52708,-100,1649.518382
2,204,63,63204,-100,798.9362441
2,304,14,14304,-100,1384.54656
2,109,19,19109,20.05208333,2266.732875
2,103,49,49103,-100,1375.868377
2,510,13,13510,-12.23958333,2054.9733
2,510,44,44510,-100,1058.036881
2,201,58,58201,32.03125,2614.137932
2,713,17,17713,-100,909.972259
2,213,71,71213,-100,1319.80204
2,105,42,42105,-100,1093.295078
2,311,33,33311,-76.04166667,2545.334295
2,311,21,21311,-26.04166667,1933.573514
2,305,64,64305,-100,1233.003601
2,308,32,32308,100,1067.680113
2,512,75,75512,-100,975.0922938
2,402,23,23402,-100,882.0272338
2,408,68,68408,-100,889.5556314
2,407,21,21407,-100,973.3928199
2,314,11,11314,-100,977.1050987
2,704,19,19704,-100,1010.023273
2,305,74,74305,-100,899.680028
2,104,48,48104,-100,872.2617492
2,405,73,73405,-100,851.8632331
2,309,45,45309,5.729166667,2175.655565
2,507,41,41507,3.645833333,1376.620613
2,313,34,34313,35.41666667,3829.311849
2,512,42,42512,-61.45833333,949.3303228
2,314,44,44314,-100,1399.491667
2,610,74,74610,-100,957.7639995
2,102,14,14102,100,1238.948439
2,502,38,38502,-36.19791667,1757.573828
2,704,25,25704,-100,1169.758421
2,506,45,45506,11.71875,1938.576547
2,101,37,37101,-100,1787.835329
2,510,39,39510,3.90625,1605.233353
2,105,76,76105,14.58333333,1909.917019
2,202,63,63202,-100,965.6325937
2,515,41,41515,-100,1837.604557
2,516,37,37516,-100,1462.904983
2,611,76,76611,-100,962.8802309
2,310,46,46310,9.114583333,1784.748203
2,602,45,45602,-100,831.8830955
2,108,79,79108,-100,1364.154383
2,506,32,32506,10.9375,1479.305057
2,208,19,19208,5.729166667,1640.653347
2,203,55,55203,-10.41666667,1859.135955
2,712,15,15712,-100,969.6651463
2,518,15,15518,-100,814.1681181
2,209,15,15209,-100,2156.434003
2,109,51,51109,-100,1620.946694
2,301,44,44301,-100,806.4625286
2,205,67,67205,-100,1070.321089
2,213,38,38213,-100,1145.281168
2,212,69,69212,-100,790.0392117
2,211,48,48211,-100,1281.725373
2,106,76,76106,-100,1043.395144
2,712,65,65712,-100,815.0640397
2,404,34,34404,-100,991.0492364
2,407,61,61407,-100,1064.307125
2,211,62,62211,-100,1050.643717
2,310,38,38310,3.90625,1443.534906
2,308,45,45308,-100,1327.206977
2,610,67,67610,100,892.2204547
2,108,64,64108,-100,1134.361369
2,519,22,22519,-99.21875,1250.843549
2,410,73,73410,-100,1129.841312
2,402,56,56402,-100,1139.178155
2,705,52,52705,-100,1259.542863
2,708,25,25708,-100,2462.755563
2,604,71,71604,-100,1027.02254
2,105,62,62105,-100,926.3083383
2,403,13,13403,-100,848.8343662
2,510,23,23510,-100,1169.250088
2,303,51,51303,-100,1026.149258
2,701,55,55701,-100,1130.286556
2,607,32,32607,-100,1101.159748
2,105,37,37105,-83.85416667,1603.296919
2,109,31,31109,-100,1565.913928
2,707,73,73707,100,1283.874016
2,702,56,56702,-100,1101.445006
2,101,15,15101,100,1128.613344
2,702,74,74702,100,873.0076461
2,303,42,42303,-100,1195.717809
2,207,53,53207,-100,971.9312121
2,614,56,56614,-100,945.5386547
2,202,56,56202,78.38541667,1833.641432
2,406,24,24406,-100,957.3368671
2,702,11,11702,-100,923.5801243
2,518,34,34518,-100,872.1002539
2,601,36,36601,-100,1238.750419
3,706,75,75706,0,7652.624525
3,517,45,45517,18.22916667,20673.40399
3,208,42,42208,21.35416667,3379.986658
3,516,75,75516,-98.95833333,2282.065872
3,205,18,18205,-98.17708333,3623.23057
3,302,68,68302,-100,2371.322662
3,411,43,43411,100,2897.073766
3,710,52,52710,-100,3264.069259
3,613,36,36613,-100,2704.759432
3,509,46,46509,-100,2200.643566
3,405,74,74405,100,8009.87989
3,312,62,62312,-100,2894.692389
3,404,19,19404,-100,1771.107133
3,105,41,41105,1.302083333,6241.98606
3,711,61,61711,-100,2862.972298
3,504,42,42504,99.47916667,2293.360279
3,511,22,22511,-100,2790.422876
3,106,56,56106,-100,4513.571944
3,104,16,16104,100,1886.878432
3,518,51,51518,100,1920.626722
3,401,29,29401,100,2211.960915
3,407,27,27407,-100,1908.743385
3,713,27,27713,-100,2401.593823
3,302,71,71302,-100,1683.207508
3,611,68,68611,100,2100.502296
3,105,69,69105,86.97916667,2016.663296
3,712,29,29712,-100,1416.870976
3,212,58,58212,49.21875,3838.495649
3,501,78,78501,-100,1525.732087
3,204,15,15204,-100,2655.840545
3,705,52,52705,-100,2212.849894
3,406,74,74406,-100,1751.468098
3,302,22,22302,100,3764.391646
3,410,31,31410,100,2303.039432
3,608,29,29608,-100,1276.6185
3,515,63,63515,-99.73958333,2258.045032
3,511,33,33511,-97.39583333,2349.483064
3,407,33,33407,100,1951.176501
3,203,75,75203,-100,1335.707364
3,211,66,66211,-100,1527.444843
3,207,71,71207,-100,1799.968607
3,305,18,18305,100,2056.484112
3,409,46,46409,100,1624.070346
3,709,28,28709,-100,1213.049122
3,206,74,74206,-100,1691.093308
3,209,15,15209,-78.90625,1622.189755
3,312,31,31312,100,1346.124868
3,704,42,42704,-100,1679.841161
3,513,36,36513,-100,3189.204266
3,601,63,63601,100,1530.187848
3,609,79,79609,-100,1488.586358
3,510,32,32510,-100,1184.645269
3,301,49,49301,-100,5126.73366
3,407,55,55407,-100,1573.768334
3,105,77,77105,-0.520833333,2308.767534
3,101,69,69101,100,1381.623647
3,401,63,63401,-100,1450.522973
3,512,64,64512,-100,1448.559975
3,607,75,75607,-100,1275.792006
3,411,77,77411,-76.04166667,1484.675455
3,208,28,28208,100,1137.426459
3,402,51,51402,-100,2472.483013
3,508,52,52508,100,1208.43096
3,608,14,14608,100,2212.761147
3,310,41,41310,-100,2629.597409
3,213,65,65213,-100,1803.075353
3,704,54,54704,-100,6413.713516
3,311,52,52311,100,1855.123023
3,108,62,62108,-100,3106.96573
3,606,29,29606,-100,1378.388609
3,603,57,57603,-100,1250.125423
3,506,55,55506,100,978.2346602
3,710,69,69710,-100,1231.642513
3,712,51,51712,-100,1710.332077
3,212,17,17212,-100,1456.698432
3,101,37,37101,-100,1206.907773
3,504,16,16504,-100,3168.666894
3,204,52,52204,58.59375,3011.964537
3,301,56,56301,7.291666667,2783.783156
3,409,53,53409,-100,1093.58909
3,210,32,32210,-100,3010.283175
3,704,62,62704,-100,1829.24544
3,402,39,39402,-100,2300.67979
3,110,51,51110,-100,1740.284775
3,609,53,53609,-100,1433.874166
3,103,21,21103,-100,3199.871709
3,210,74,74210,-100,1346.14479
3,210,21,21210,100,3936.953142
3,712,79,79712,100,1249.471593
3,705,42,42705,-100,1532.76
3,110,61,61110,100,1550.323443
3,408,23,23408,-100,2564.404928
3,611,35,35611,-100,1830.294103
3,207,31,31207,-100,3681.987992
3,519,29,29519,100,1213.884671
3,513,53,53513,100,1772.702465
3,703,33,33703,-100,2498.605405
3,505,51,51505,100,2531.292958
3,102,43,43102,-100,4111.390399
3,509,71,71509,-100,1308.973403
3,205,35,35205,-100,4086.13344
3,108,57,57108,5.989583333,3651.507943
3,205,76,76205,-100,1171.610636
3,411,61,61411,-100,1206.123841
3,702,41,41702,-100,1333.936048
3,406,27,27406,-100,1608.385983
3,303,19,19303,-100,2615.796051
3,309,15,15309,-100,1742.482017
3,504,31,31504,-100,1254.805466
3,105,28,28105,100,2647.238129
3,409,64,64409,-100,1025.127159
3,518,63,63518,-100,1409.039812
3,503,77,77503,-100,1481.78816
3,510,11,11510,-100,1550.988744
3,209,71,71209,-100,1067.627287
3,405,47,47405,100,2089.460545
3,304,46,46304,-100,1242.183175
3,212,25,25212,100,1365.462646
3,309,77,77309,-100,1334.294054
3,107,37,37107,-100,1877.887823
3,601,48,48601,-94.01041667,1386.757084
3,304,23,23304,-100,4298.749091
3,713,17,17713,-100,1302.544381
3,705,26,26705,-100,1252.341682
3,505,14,14505,-100,1337.733451
3,506,21,21506,-100,3111.336064
3,519,58,58519,100,1302.401299
3,609,44,44609,-100,1087.15554
3,712,46,46712,-100,1021.654557
3,308,67,67308,-100,2296.169392
3,201,71,71201,-100,1338.354378
3,613,72,72613,-93.48958333,1330.240975
3,403,75,75403,-100,2842.585857
3,501,25,25501,-100,3516.115419
3,703,49,49703,-100,1122.37389
3,712,68,68712,-100,1166.222127
3,308,17,17308,-100,1147.06305
3,603,21,21603,-100,1024.937892
3,711,31,31711,-100,1132.185258
3,701,31,31701,-100,1345.898774
3,607,68,68607,100,1572.231865
3,311,49,49311,100,2055.435751
3,109,47,47109,-100,1999.740702
3,516,12,12516,-100,1529.508058
3,308,77,77308,-100,982.9038364
3,506,71,71506,-100,1182.102699
3,309,22,22309,100,2255.129664
3,707,76,76707,100,1446.853257
3,207,13,13207,-100,1043.781224
3,308,46,46308,-100,1582.054099
3,314,27,27314,-100,1863.378301
3,302,36,36302,100,1517.869832
3,603,47,47603,-100,940.1084887
3,313,43,43313,-100,1066.425883
3,211,77,77211,-100,1146.579167
3,405,59,59405,-100,1827.554116
3,212,38,38212,-100,1276.049795
3,515,11,11515,-100,1719.538516
3,301,24,24301,-100,2828.634474
3,612,14,14612,100,2445.418816
3,519,77,77519,-100,1870.828818
3,201,46,46201,-100,862.0824139
3,708,78,78708,100,1558.383417
3,202,14,14202,-100,1507.935607
3,507,32,32507,-100,965.4514774
3,201,21,21201,-100,1100.727785
3,515,77,77515,-100,1089.704449
3,109,62,62109,100,2201.907456
3,605,24,24605,-100,1860.859578
3,110,75,75110,-100,2297.665714
3,310,53,53310,100,1972.353515
3,209,36,36209,-100,1276.081792
3,509,25,25509,-100,1418.239309
3,401,72,72401,-100,3724.296137
3,611,58,58611,-100,1211.260901
3,311,11,11311,-0.520833333,7460.442708
3,312,43,43312,-100,1146.894612
3,206,23,23206,100,2626.440553
3,210,15,15210,-100,1098.589105
3,605,71,71605,-100,1605.427751
3,507,64,64507,-100,895.9602027
3,513,41,41513,-100,1973.715811
3,601,22,22601,-100,1244.443807
3,502,28,28502,-100,1772.40302
3,613,63,63613,100,1343.955095
3,108,26,26108,-100,1451.118544
3,105,59,59105,0,7671.035592
3,101,74,74101,-100,1099.30723
3,513,67,67513,-79.16666667,1351.106469
3,713,47,47713,-100,1482.451348
3,203,24,24203,100,1728.4926
3,601,56,56601,-100,1546.900951
3,515,31,31515,-100,1165.039438
3,507,49,49507,-100,1612.976977
3,411,22,22411,-100,1251.226911
3,303,73,73303,-100,2390.274361
3,311,68,68311,-100,1440.900872
3,308,25,25308,-100,906.7915563
3,503,17,17503,-100,5273.014287
3,305,74,74305,-100,3129.889006
3,309,43,43309,-100,1385.740418
3,205,51,51205,100,2600.350762
3,509,67,67509,100,10796.79575
3,106,34,34106,-100,1596.798771
3,606,15,15606,100,1997.522028
3,704,26,26704,-100,1769.023995
3,311,71,71311,-100,3298.156237
3,511,43,43511,-100,1284.725262
3,518,27,27518,-100,1598.287546
3,512,57,57512,100,1559.74692
3,701,62,62701,-100,1319.418979
3,613,42,42613,-100,19070.96496
3,403,51,51403,-100,2607.941343
3,402,11,11402,-100,1289.674564
3,205,24,24205,100,2189.849341
3,213,36,36213,-100,4145.843534
3,501,47,47501,-100,1321.899668
3,109,25,25109,-100,2395.730185
3,519,31,31519,-100,965.2543626
3,508,36,36508,-100,2376.409009
3,516,42,42516,-100,1065.501284
3,611,22,22611,-100,1299.366999
3,201,61,61201,-100,1027.583396
3,604,42,42604,-100,1125.640623
3,307,22,22307,-100,1013.210013
3,211,32,32211,-100,903.1314994
3,202,43,43202,-100,1073.906284
3,302,43,43302,-100,972.7447258
3,612,42,42612,-100,970.9027738
3,712,13,13712,-100,1256.14965
3,608,59,59608,-100,1121.913251
3,314,77,77314,-100,1577.923442
3,304,56,56304,100,1825.999837
3,505,22,22505,-100,1197.572741
3,213,52,52213,100,5064.060807
3,501,11,11501,-100,1285.529116
3,506,19,19506,-99.73958333,1741.382943
3,701,27,27701,-100,1060.635295
3,306,66,66306,-100,1911.448356
3,203,53,53203,100,2230.563362
3,106,72,72106,-100,929.8216911
3,507,16,16507,-100,2123.435835
3,517,29,29517,100,1790.034986
3,301,12,12301,-100,1374.228068
3,409,73,73409,0,1182.63669
3,614,44,44614,-100,2596.423558
3,104,71,71104,-100,1160.842975
3,610,57,57610,-100,1290.957169
3,612,64,64612,90.36458333,1470.366972
3,314,69,69314,0.78125,15.91981377
3,614,64,64614,100,2977.79817
3,410,46,46410,100,1756.596102
3,209,22,22209,100,1478.216549
3,211,54,54211,100,1354.574543
3,301,32,32301,100,1456.191005
3,608,37,37608,-100,1301.728151
3,703,58,58703,-100,1112.695341
3,511,74,74511,-100,1136.286936
3,310,67,67310,-100,1529.818673
3,604,63,63604,100,1227.072951
3,410,65,65410,-100,1242.995481
3,212,48,48212,-100,1248.596802
3,502,66,66502,-100,1210.088777
3,103,34,34103,-100,1117.915715
3,502,33,33502,-100,1235.670839
3,510,25,25510,100,1352.044953
3,513,24,24513,81.25,1391.291932
3,312,14,14312,-100,1068.87397
3,613,56,56613,-100,1293.084077
3,517,67,67517,-100,1018.380278
3,509,54,54509,-100,4327.538721
3,602,34,34602,-100,1647.037995
3,506,32,32506,-100,1038.660766
3,614,21,21614,-100,982.1078306
3,309,63,63309,-100,1119.488407
3,209,53,53209,-100,2959.934979
3,411,36,36411,-93.75,1400.841285
3,409,29,29409,-100,1585.893763
3,309,39,39309,-100,1134.602556
3,305,55,55305,-100,1142.953824
3,702,13,13702,-100,1047.297293
3,106,67,67106,-100,1444.30314
3,310,37,37310,-100,1050.230169
3,513,77,77513,-100,1237.082338
3,613,27,27613,-100,820.3758766
3,612,21,21612,-100,1119.524328
3,208,17,17208,-100,1176.279511
3,107,55,55107,-100,1016.735139
3,305,62,62305,100,2014.066693
3,608,41,41608,-100,1061.477788
3,603,78,78603,-100,1159.006457
3,206,62,62206,-100,1292.155857
3,303,52,52303,-100,1246.388995
3,409,16,16409,-100,1017.097975
3,514,29,29514,100,1352.834922
3,604,15,15604,100,1547.061238
3,313,57,57313,100,2302.290215
3,505,32,32505,-100,1108.720746
3,517,79,79517,-100,1246.619919
3,517,55,55517,-100,1494.733744
3,204,77,77204,-100,2483.636451
3,308,31,31308,100,1827.676973
3,510,58,58510,100,1682.010028
3,406,67,67406,-100,1188.853504
3,518,42,42518,-100,1148.672871
3,202,35,35202,-100,1464.166458
3,519,13,13519,-100,1048.505037
3,606,55,55606,-100,1251.532092
3,707,54,54707,-100,1234.68768
3,404,44,44404,100,5399.150565
3,506,42,42506,-100,6471.549661
3,711,13,13711,-100,1152.242973
3,610,41,41610,-100,1916.501801
3,102,79,79102,-100,1395.342295
3,305,46,46305,-100,1099.595205
3,313,29,29313,100,1697.004036
3,314,32,32314,100,1456.04249
3,213,29,29213,100,1619.954781
3,712,38,38712,-100,878.0001147
3,501,36,36501,-100,1499.888312
3,107,44,44107,-100,1043.119848
3,406,13,13406,-100,1510.170581
3,213,17,17213,-100,1364.635549
3,402,73,73402,-100,1489.201247
3,705,31,31705,-100,2269.906936
3,705,17,17705,-100,1139.349914
3,708,17,17708,-100,1617.35516
3,108,77,77108,-100,1186.553328
3,713,76,76713,100,5229.305208
3,404,34,34404,-100,1970.353086
3,406,54,54406,-100,973.0496047
3,109,78,78109,-100,1570.88104
3,312,23,23312,100,1908.171058
3,306,18,18306,-100,1192.87519
3,306,28,28306,-100,1828.584064
3,211,48,48211,-100,1267.945448
3,702,75,75702,100,1613.744608
3,514,46,46514,-100,1322.555308
3,408,49,49408,100,1628.818005
3,611,14,14611,100,1262.228514
3,314,11,11314,-100,2260.045158
3,407,48,48407,100,1162.933962
3,607,46,46607,-100,3336.996308
3,610,14,14610,100,1171.477214
3,410,59,59410,-100,1379.31532
3,514,13,13514,-100,1041.392603
3,707,46,46707,-100,967.3474624
3,205,66,66205,-100,1650.489165
3,610,24,24610,-98.17708333,1025.277485
3,204,22,22204,100,1154.033005
3,511,51,51511,100,1225.350837
3,512,44,44512,-100,1157.935456
3,307,12,12307,-100,1905.250559
3,704,37,37704,-100,1282.380109
3,207,54,54207,-100,1300.201643
3,713,58,58713,-100,1124.187166
3,503,47,47503,-100,1168.999242
3,605,56,56605,-100,1863.155528
3,607,22,22607,-100,1050.121197
3,606,79,79606,-100,1097.967876
3,602,23,23602,-100,1399.797452
3,313,79,79313,-100,1282.037497
3,102,13,13102,100,1689.801648
3,303,64,64303,-100,1173.256379
3,110,41,41110,-100,1165.758168
3,502,46,46502,-100,3907.680233
3,202,72,72202,-100,2086.118045
3,210,61,61210,-100,1278.165836
3,307,57,57307,-100,9295.460322
3,711,44,44711,-100,1044.668693
3,705,76,76705,100,2004.148165
3,504,54,54504,100,1420.781275
3,203,66,66203,-100,1066.517648
3,204,61,61204,-100,979.5187742
3,708,39,39708,-100,1259.03785
3,302,18,18302,-100,1240.496681
3,601,77,77601,-100,849.718817
3,405,38,38405,-100,1147.434036
3,313,34,34313,-100,929.789392
3,210,56,56210,100,1321.596298
3,710,46,46710,-100,1136.180682
3,710,25,25710,-100,1005.128608
3,605,43,43605,-100,921.808204
3,706,33,33706,-100,1150.836304
3,507,25,25507,7.291666667,1392.76652
3,508,43,43508,-100,1049.197504
3,202,68,68202,-100,1002.331569
3,109,39,39109,-100,863.0510838
3,708,61,61708,-100,1250.664546
3,611,45,45611,-100,1025.070711
3,307,71,71307,-100,935.2569888
3,703,28,28703,-100,1195.871154
3,506,69,69506,-100,929.6927967
3,509,31,31509,-100,1096.775829
3,310,79,79310,-100,1262.27651
3,510,41,41510,-100,1009.391178
3,206,17,17206,-100,1143.218858
3,517,18,18517,-100,1114.81591
3,311,25,25311,-100,1012.557693
3,603,68,68603,100,1264.811232
3,519,49,49519,-100,2707.651858
3,404,66,66404,-100,2066.328986
3,512,72,72512,-100,2576.977714
3,707,22,22707,-100,9834.135276
3,605,32,32605,-81.25,1150.533236
3,711,71,71711,100,1107.338527
3,202,21,21202,-100,851.0808111
3,507,56,56507,100,1186.430169
3,404,79,79404,100,2645.561294
3,211,24,24211,100,1325.491806
3,307,64,64307,-100,919.7546479
3,314,49,49314,-100,1006.766502
3,304,69,69304,-100,1445.488244
3,709,37,37709,-100,956.6739817
3,608,79,79608,-100,1520.287431
3,411,17,17411,-100,1480.207318
3,711,54,54711,-100,1570.969485
3,101,56,56101,-100,1018.154184
3,713,33,33713,-100,934.0293227
3,602,73,73602,-100,940.9011739
3,514,67,67514,-100,992.4181732
3,511,15,15511,-100,1113.234464
3,606,64,64606,100,1114.239961
3,306,56,56306,-100,953.7954413
3,602,47,47602,-100,864.8021758
3,505,76,76505,-100,1044.047766
3,606,45,45606,-100,2428.670396
3,107,66,66107,100,1423.353427
3,607,15,15607,100,1243.366166
3,602,51,51602,-100,977.5769064
3,303,47,47303,-100,914.9125058
3,408,69,69408,-100,1601.251815
3,303,24,24303,-100,2420.144953
3,402,69,69402,-100,942.8288542
3,206,34,34206,-100,1384.375104
3,511,68,68511,-100,1199.983398
3,108,45,45108,-100,2067.914054
3,105,14,14105,100,1742.419833
3,103,72,72103,-100,1915.185086
3,410,72,72410,-100,1631.091919
3,408,33,33408,-100,1140.59056
3,709,47,47709,-100,1478.064713
3,604,28,28604,-100,1006.207457
3,604,57,57604,-100,1082.393994
3,503,31,31503,-100,1165.149617
3,709,18,18709,-100,1154.664497
3,503,69,69503,100,1801.016666
3,516,27,27516,-100,1116.778305
3,504,71,71504,-100,2206.425702
3,701,74,74701,100,1307.950398
3,610,67,67610,-100,943.0899634
3,515,47,47515,-100,1494.798342
3,516,63,63516,-100,1126.336109
3,515,23,23515,-100,2308.206074
3,704,77,77704,100,1358.901711
3,104,45,45104,-100,3222.515463
3,602,66,66602,100,1127.058763
3,314,53,53314,-100,6823.117372
3,108,32,32108,-100,14170.23989
3,402,28,28402,-100,19738.28706
3,407,17,17407,-100,940.4227252
3,602,19,19602,100,912.3201289
3,612,71,71612,-100,798.9259808
3,304,32,32304,-100,805.1971299
3,612,31,31612,-100,1034.66987
3,206,45,45206,-100,802.5878489
3,106,22,22106,-100,863.9355347
3,515,59,59515,100,1380.229957
3,713,61,61713,-100,917.1598562
3,510,61,61510,-100,1336.894279
3,609,66,66609,100,1083.474654
3,706,27,27706,-100,17365.27942
3,503,53,53503,100,4685.335322
3,403,62,62403,-100,1192.747503
3,110,14,14110,100,1116.084328
3,510,72,72510,-100,846.4982688
3,503,25,25503,-100,1260.059949
3,613,19,19613,100,995.9940111
3,105,36,36105,4.166666667,5740.806088
3,603,31,31603,-100,1054.827502
3,107,74,74107,-100,1679.276984
3,311,31,31311,-100,1855.558306
3,406,45,45406,100,1200.831022
3,403,24,24403,-100,3679.120922
3,512,29,29512,100,3091.938517
3,607,38,38607,-100,857.8270883
3,402,45,45402,100,1121.302588
3,518,79,79518,-100,887.5745218
3,408,12,12408,-100,3742.792329
3,709,54,54709,-100,1251.35641
3,508,29,29508,-100,861.7524806
3,313,19,19313,-100,991.1871867
3,303,37,37303,100,1498.653703
3,612,56,56612,-100,1024.074873
3,502,14,14502,-100,1171.880801
3,519,69,69519,-100,902.9555148
3,708,52,52708,-100,2944.110251
3,610,77,77610,-100,1162.149427
3,104,66,66104,100,2819.094479
3,404,28,28404,-100,9705.173887
3,304,14,14304,-100,1313.513987
3,206,57,57206,100,1369.033051
3,703,68,68703,-100,1140.802767
3,109,53,53109,-100,1369.794343
3,203,45,45203,-100,1117.192457
3,108,19,19108,-100,1069.886108
3,611,75,75611,-100,944.9228595
3,701,13,13701,-100,1182.975981
3,203,36,36203,-100,1143.945436
3,104,54,54104,-100,869.9168978
3,608,67,67608,100,1201.823237
3,601,34,34601,-100,956.5813107
3,107,15,15107,100,1069.588172
3,702,37,37702,-100,1494.804983
3,710,19,19710,-100,1228.480827
3,614,53,53614,-100,741.2392576
3,518,18,18518,-100,1319.85879
3,604,37,37604,-100,1196.115359
3,609,19,19609,100,974.5649438
3,208,51,51208,100,1405.382774
3,305,34,34305,100,1884.058452
3,513,16,16513,-100,1178.306201
3,403,13,13403,-100,1453.321521
3,204,33,33204,100,2153.91528
3,304,77,77304,-100,1169.547119
3,213,76,76213,-100,1458.807229
3,516,56,56516,100,1068.542226
3,518,36,36518,-100,1219.057652
3,704,11,11704,-100,1257.873575
3,701,44,44701,-100,885.2876276
3,103,55,55103,-83.33333333,1571.862388
3,205,43,43205,-100,1024.717534
3,306,47,47306,-100,945.672077
3,107,28,28107,-100,818.4349144
3,401,53,53401,-100,1120.856438
3,209,47,47209,-100,991.9324799
3,103,12,12103,-100,696.1235092
3,408,78,78408,-100,960.2148038
3,312,52,52312,100,14050.44539
3,707,66,66707,-100,2584.000495
3,410,24,24410,-100,11825.61164
3,405,28,28405,-100,9517.088919
3,614,75,75614,-100,2006.729977
3,306,75,75306,-100,1219.22277
3,201,38,38201,-100,1734.145237
3,101,14,14101,100,1688.272121
3,706,45,45706,-100,1538.411731
3,208,69,69208,-100,1575.550216
3,407,71,71407,-100,1357.657443
3,306,39,39306,100,1495.863607
3,509,12,12509,-100,1453.878151
3,407,67,67407,-100,1807.66997
3,512,16,16512,-100,1451.441534
3,302,57,57302,100,2266.390263
3,614,14,14614,100,1104.09866
3,106,16,16106,-100,912.2525122
3,507,78,78507,-100,913.7192518
3,409,31,31409,-100,1945.699244
3,703,71,71703,100,2293.844463
3,207,49,49207,-100,2248.143106
3,202,56,56202,100,2461.10167
3,410,13,13410,-100,1583.771383
3,605,14,14605,100,1264.081635
3,702,22,22702,-100,2328.558707
3,201,13,13201,-100,1275.46479
3,604,73,73604,-100,1164.080428
3,308,53,53308,-100,1363.684387
3,516,32,32516,-100,1262.991919
3,711,24,24711,-100,3333.191057
3,708,42,42708,-100,1840.72368
3,104,28,28104,-100,1662.007854
3,705,61,61705,-100,1064.224415
3,211,19,19211,-100,2450.53052
3,505,64,64505,-100,1085.948702
3,405,11,11405,-100,1124.845825
3,610,34,34610,-100,3010.687366
3,702,57,57702,-100,1726.568844
3,710,78,78710,100,1031.26881
3,707,15,15707,-100,1027.866843
3,208,77,77208,-100,860.8801041
3,210,49,49210,-100,938.1032302
3,605,61,61605,100,939.5367651
3,514,33,33514,-100,1029.276531
3,307,41,41307,-100,783.7212742
3,706,52,52706,-100,1243.461252
3,508,77,77508,-100,784.1315024
3,504,67,67504,-100,821.2213874
3,703,18,18703,-100,1279.352449
3,401,36,36401,-100,928.1747409
3,405,61,61405,-100,1915.377371
3,614,39,39614,-100,906.8286852
3,709,68,68709,-100,790.044947
3,110,23,23110,100,2055.798587
3,403,45,45403,100,1818.010499
3,213,49,49213,-100,1166.789323
3,708,27,27708,-100,1125.01215
3,212,68,68212,-100,891.7860776
3,403,34,34403,-100,1569.941047
3,404,55,55404,-100,1172.490861
3,310,16,16310,-100,1186.343837
3,101,23,23101,-100,1571.890763
3,508,67,67508,-100,1198.747883
3,209,65,65209,-100,981.1026356
3,401,46,46401,100,1213.471123
3,207,23,23207,100,1082.547037
3,101,42,42101,-100,1768.32881
3,103,45,45103,-100,919.9088985
3,517,34,34517,-100,1427.544758
3,203,18,18203,-100,930.9518563
3,601,18,18601,-100,1157.771546
3,501,67,67501,-100,3324.090872
3,309,52,52309,100,909.7497879
3,710,31,31710,-100,1051.465683
3,312,76,76312,-100,1742.858738
3,201,53,53201,100,1037.931472
3,305,29,29305,100,1694.038862
3,706,19,19706,-100,1058.476994
3,609,23,23609,-29.16666667,960.9102901
3,104,38,38104,-100,1372.834378
3,204,49,49204,100,2088.892746
3,307,36,36307,-100,797.5558366
3,606,38,38606,-100,1049.992001
3,301,69,69301,-100,1238.708762
3,502,55,55502,100,1353.842833
3,514,57,57514,100,1064.444169
3,212,76,76212,-100,892.6107601
3,603,11,11603,100,1148.010891
3,701,55,55701,-100,1535.670538
3,106,46,46106,-100,1151.310225
3,501,55,55501,100,957.0187063
3,301,74,74301,-100,1662.102035
3,102,69,69102,100,2796.895668
3,102,28,28102,100,1462.585917
3,514,78,78514,-100,1058.36772
3,110,34,34110,-100,1379.241666
3,103,66,66103,100,2599.571358
3,109,18,18109,100,1493.538377
3,208,39,39208,100,3874.08408
3,313,67,67313,-100,1156.856909
3,102,32,32102,-100,2782.717588
3,512,36,36512,-100,2072.333592
3,102,51,51102,-100,1156.830949
3,609,34,34609,-100,916.7635135
3,408,57,57408,-100,1533.269842
3,406,39,39406,-100,1931.571878
3,310,28,28310,-100,1497.3714
3,505,45,45505,-100,1080.211846
3,709,77,77709,100,1343.925815
3,508,14,14508,-100,2513.068743
3,502,79,79502,-100,1576.847914
3,411,59,59411,-100,1133.307273
3,401,18,18401,-100,935.7221557
3,706,64,64706,-100,946.757265
3,702,65,65702,-100,925.9814235
3,707,33,33707,-100,1131.244963
3,607,58,58607,-100,982.4601016
3,207,68,68207,-100,919.6360168
3,504,29,29504,100,11517.47379
4,404,29,29404,-100,10335.45018
4,211,45,45211,-42.44791667,31339.9162
4,411,69,69411,-100,1851.162615
4,212,22,22212,100,1823.531827
4,211,12,12211,-100,4808.331044
4,605,33,33605,0,2959.365067
4,205,24,24205,100,2516.746911
4,604,24,24604,-100,2090.426499
4,708,33,33708,2.604166667,8611.662375
4,705,17,17705,-100,2708.504312
4,304,51,51304,-100,3081.914036
4,407,34,34407,-5.208333333,7469.787702
4,703,43,43703,52.60416667,7451.93568
4,515,13,13515,-100,1577.470652
4,211,51,51211,-43.22916667,4590.100489
4,703,66,66703,-2.083333333,6440.397671
4,105,33,33105,100,3712.45174
4,311,22,22311,100,5213.406524
4,519,41,41519,-100,4884.182517
4,513,53,53513,100,2918.689383
4,311,55,55311,-3.90625,7642.114954
4,701,48,48701,0,3781.991312
4,110,41,41110,-100,2222.185228
4,306,49,49306,-100,3060.497647
4,410,32,32410,-61.71875,6402.385904
4,704,68,68704,-100,2535.186353
4,213,18,18213,-100,3883.202074
4,213,29,29213,100,1535.190881
4,518,22,22518,-100,1677.487254
4,409,25,25409,-100,2884.842082
4,403,24,24403,-100,4430.531667
4,203,72,72203,-100,2380.936311
4,601,76,76601,-100,2094.674579
4,105,46,46105,-100,2015.68074
4,704,72,72704,0,9831.628023
4,606,55,55606,-100,2679.170729
4,608,19,19608,65.36458333,2265.540526
4,515,45,45515,-38.80208333,7071.356772
4,602,77,77602,-100,2755.687804
4,102,54,54102,-100,6057.826786
4,516,51,51516,100,1437.11343
4,309,13,13309,55.98958333,4472.331177
4,605,78,78605,-100,1523.786295
4,711,44,44711,-100,6335.195711
4,706,11,11706,-100,1883.945255
4,705,75,75705,100,2360.660953
4,210,44,44210,-100,2284.708961
4,109,57,57109,51.82291667,2685.983114
4,614,15,15614,100,2252.958081
4,609,28,28609,-100,1560.142659
4,107,28,28107,-100,2590.679156
4,607,72,72607,-100,1745.992653
4,507,22,22507,-100,2020.771917
4,102,18,18102,100,1574.357566
4,507,56,56507,100,2339.30554
4,213,31,31213,-98.69791667,11734.88178
4,706,49,49706,-100,1671.869331
4,210,65,65210,-100,4144.434449
4,605,15,15605,100,2037.214553
4,313,46,46313,-100,5392.066808
4,404,77,77404,-75.78125,3071.827372
4,706,78,78706,100,1444.895994
4,504,54,54504,65.36458333,3590.932115
4,519,71,71519,-100,2197.485805
4,513,47,47513,-100,2088.207523
4,304,73,73304,-100,2684.251643
4,713,18,18713,-100,3021.033932
4,517,64,64517,-100,2033.726255
4,516,18,18516,-55.98958333,8078.825703
4,705,42,42705,-100,2206.866418
4,203,62,62203,-100,1754.043872
4,708,18,18708,-100,2582.183899
4,702,21,21702,-100,4620.959071
4,613,47,47613,-100,2519.664392
4,708,67,67708,-100,2982.727852
4,306,14,14306,-100,3024.593771
4,407,14,14407,100,2410.07308
4,304,39,39304,-3.385416667,5304.818899
4,212,14,14212,2.083333333,7673.554617
4,408,44,44408,0,5318.02529
4,613,32,32613,-100,2267.142801
4,307,13,13307,-100,2132.652538
4,104,23,23104,-100,2383.924728
4,702,49,49702,-100,1916.076479
4,706,23,23706,-100,1641.675446
4,205,43,43205,-100,1587.754431
4,312,14,14312,100,1481.916753
4,613,67,67613,100,1683.243429
4,104,62,62104,-100,1409.942677
4,708,28,28708,-100,2170.381763
4,508,31,31508,-100,1998.730677
4,610,15,15610,100,1431.762351
4,311,71,71311,0,2993.823937
4,308,37,37308,100,1861.620568
4,309,77,77309,-100,4763.78219
4,509,72,72509,-100,2811.60472
4,302,47,47302,-93.75,3673.868552
4,409,46,46409,100,1275.9858
4,313,28,28313,-100,1652.363718
4,409,66,66409,-100,2380.093214
4,603,59,59603,-89.58333333,3690.818011
4,206,24,24206,100,5741.772645
4,104,54,54104,-100,1628.858153
4,303,35,35303,100,1353.788197
4,207,33,33207,-56.77083333,1954.328829
4,605,59,59605,-100,1506.59263
4,210,55,55210,-100,1829.962962
4,201,13,13201,-100,2197.575156
4,108,24,24108,-100,1402.346059
4,313,37,37313,22.65625,2842.457868
4,613,54,54613,-83.59375,2239.955747
4,103,22,22103,-48.17708333,9954.806975
4,307,68,68307,-100,1412.799785
4,110,16,16110,100,1282.836522
4,206,54,54206,-59.63541667,2040.653045
4,108,42,42108,-96.09375,2441.692048
4,509,12,12509,-42.1875,3510.901687
4,206,45,45206,-100,2790.334733
4,512,34,34512,-100,1838.858183
4,603,37,37603,-100,1577.96691
4,711,71,71711,100,1045.354218
4,503,48,48503,-100,1684.546259
4,609,37,37609,-100,9339.487864
4,103,72,72103,-100,4344.475502
4,404,48,48404,100,1380.907332
4,305,52,52305,-39.32291667,6252.451559
4,211,66,66211,-100,1558.715765
4,607,25,25607,-100,1198.33041
4,410,42,42410,100,3419.13523
4,404,51,51404,-100,1480.981891
4,602,17,17602,100,1791.720876
4,301,37,37301,100,2714.11318
4,502,24,24502,-100,1581.411137
4,408,51,51408,-100,2273.395839
4,301,46,46301,-100,1722.012865
4,610,52,52610,-100,1338.312721
4,516,37,37516,-100,16150.45928
4,410,75,75410,-100,2690.599766
4,515,73,73515,-100,2605.04952
4,518,69,69518,-100,1310.37162
4,202,47,47202,-100,2925.169117
4,304,48,48304,-100,1474.885218
4,501,21,21501,-100,5753.437133
4,712,62,62712,-100,2151.075076
4,401,77,77401,100,2003.013774
4,313,77,77313,-100,1195.21491
4,402,77,77402,100,1311.926201
4,510,15,15510,-100,1447.340157
4,706,54,54706,-100,1351.633819
4,213,56,56213,-89.0625,3657.210991
4,408,38,38408,54.6875,4755.257351
4,706,67,67706,-100,1000.157269
4,704,35,35704,-100,1426.231666
4,503,73,73503,-100,2253.088484
4,711,27,27711,-100,1663.34419
4,312,34,34312,100,1538.333852
4,101,76,76101,-100,1590.498945
4,710,58,58710,-100,1953.380081
4,205,68,68205,-100,1550.219
4,514,59,59514,100,1848.352597
4,613,19,19613,100,1669.615339
4,508,58,58508,100,3790.294887
4,401,51,51401,13.80208333,2432.325321
4,107,61,61107,1.041666667,2986.931861
4,709,61,61709,-100,1644.04837
4,711,13,13711,-43.48958333,5210.147942
4,610,41,41610,-100,1624.757983
4,516,64,64516,-97.91666667,1502.799755
4,506,54,54506,89.58333333,2663.106022
4,713,65,65713,-91.14583333,2583.521141
4,206,39,39206,-100,2003.286052
4,612,33,33612,-100,1951.569221
4,516,74,74516,-100,1811.449866
4,701,28,28701,-100,1950.394682
4,306,74,74306,-100,1721.156186
4,102,72,72102,-100,1532.778112
4,611,45,45611,-100,2026.337921
4,408,78,78408,-100,2692.554614
4,709,24,24709,-100,1220.650268
4,502,67,67502,-100,1191.713631
4,101,36,36101,-100,1569.618056
4,314,55,55314,-100,2187.855252
4,605,45,45605,-100,2108.724368
4,609,79,79609,-100,1510.764039
4,711,51,51711,-100,7047.899505
4,509,23,23509,-100,1669.63496
4,204,15,15204,-100,2111.565176
4,107,56,56107,-100,1654.681401
4,702,18,18702,-100,1192.271167
4,314,65,65314,-100,1966.120702
4,516,24,24516,-100,1133.740442
4,210,37,37210,-100,1551.327431
4,101,25,25101,-72.65625,7321.071967
4,502,38,38502,-100,1713.001428
4,104,15,15104,100,1399.842127
4,610,65,65610,100,1269.046031
4,313,55,55313,20.83333333,4714.54967
4,312,43,43312,-100,1282.326981
4,401,11,11401,100,1760.187938
4,518,41,41518,-100,1460.822147
4,404,68,68404,-100,1153.419021
4,701,53,53701,-100,2241.917538
4,707,68,68707,-100,1378.490638
4,206,67,67206,-100,1211.924994
4,303,68,68303,-100,1593.131167
4,106,69,69106,-54.94791667,5699.179242
4,502,12,12502,-100,1385.086589
4,515,64,64515,-100,1310.564811
4,702,59,59702,-100,1174.167394
4,602,66,66602,100,1569.506066
4,410,69,69410,-100,1606.546446
4,209,15,15209,-100,1604.839123
4,509,41,41509,-100,1087.696172
4,405,46,46405,100,2227.495253
4,704,13,13704,-100,1933.8147
4,608,55,55608,-48.4375,1504.037382
4,308,17,17308,-100,2611.073748
4,406,46,46406,100,4392.872473
4,301,76,76301,-100,1412.833895
4,408,64,64408,-100,2519.546666
4,212,43,43212,-100,1649.758059
4,505,14,14505,-100,2869.991457
4,410,21,21410,-100,1493.191238
4,406,26,26406,-100,6387.10362
4,109,49,49109,48.4375,2055.105817
4,106,21,21106,-100,4326.941038
4,701,71,71701,100,1361.498616
4,407,78,78407,-12.23958333,3943.952077
4,603,73,73603,-100,1867.164233
4,305,41,41305,-53.90625,9594.586738
4,205,78,78205,-100,1218.403521
4,510,32,32510,-100,2410.468517
4,208,18,18208,23.17708333,3180.325043
4,209,51,51209,-69.01041667,2354.310415
4,105,74,74105,40.36458333,2898.966128
4,402,26,26402,20.3125,2923.805614
4,312,76,76312,-100,1357.133715
4,505,77,77505,-100,2167.922506
4,303,26,26303,-100,1730.823566
4,103,44,44103,-100,2580.73497
4,512,42,42512,-100,4773.196309
4,202,57,57202,-100,1752.659239
4,410,53,53410,-100,1326.19182
4,504,26,26504,-100,1547.553271
4,312,58,58312,100,1189.656755
4,511,11,11511,-100,1410.465801
4,512,69,69512,-100,1279.827577
4,502,71,71502,-100,1174.531135
4,202,18,18202,43.22916667,2626.124505
4,207,28,28207,100,1519.660769
4,312,61,61312,-100,1496.927061
4,710,35,35710,-100,2862.514376
4,207,59,59207,-100,2660.340076
4,305,13,13305,100,5581.442228
4,519,68,68519,-100,2123.164161
4,311,46,46311,-57.8125,4533.250523
4,404,18,18404,-99.73958333,1571.287948
4,107,48,48107,-100,2728.22002
4,407,41,41407,100,1361.872621
4,308,23,23308,-100,2122.363627
4,108,76,76108,-100,1223.367916
4,603,45,45603,-100,1472.224017
4,709,59,59709,-100,1998.861081
4,208,77,77208,-100,1861.69392
4,506,16,16506,-100,1535.869162
4,505,23,23505,-100,2448.544278
4,204,63,63204,-100,1458.850999
4,110,28,28110,42.44791667,3939.383118
4,302,75,75302,-100,1353.21436
4,212,78,78212,-100,1171.339868
4,212,61,61212,-100,1003.879509
4,411,48,48411,100,3946.651312
4,508,11,11508,-100,1375.489542
4,305,69,69305,-100,2819.924293
4,611,79,79611,-100,1681.793292
4,103,35,35103,-100,1232.934475
4,517,22,22517,-100,1041.233824
4,607,62,62607,100,1218.217877
4,508,67,67508,-100,1231.241642
4,612,18,18612,100,1423.946583
4,519,31,31519,-100,1138.467576
4,601,27,27601,-100,1275.261336
4,105,69,69105,2.864583333,2160.440595
4,602,54,54602,-100,1166.784191
4,211,76,76211,-100,1379.32015
4,402,14,14402,53.64583333,3554.340601
4,310,12,12310,100,1370.777502
4,602,28,28602,-100,1475.865358
4,601,17,17601,-100,1090.309075
4,302,13,13302,-100,1540.535923
4,210,76,76210,-100,1165.759677
4,208,44,44208,-100,1518.67278
4,612,21,21612,-100,1228.24115
4,518,31,31518,-100,1005.657467
4,708,75,75708,100,1252.131587
4,306,23,23306,-53.38541667,5879.036703
4,207,14,14207,-59.375,2024.396053
4,504,13,13504,-100,1353.747144
4,104,72,72104,-100,1548.50564
4,205,54,54205,-100,1818.052155
4,202,37,37202,-100,2568.032685
4,509,32,32509,-100,1174.666973
4,511,76,76511,-100,1573.014287
4,301,24,24301,-100,1489.078994
4,614,54,54614,-100,1004.809541
4,309,32,32309,100,2025.004
4,201,22,22201,100,1647.326876
4,713,56,56713,-91.40625,3609.062754
4,109,23,23109,52.34375,3606.916527
4,702,76,76702,100,1740.177615
4,507,39,39507,-100,2886.569025
4,712,37,37712,-100,1323.74977
4,409,77,77409,100,2304.698457
4,603,29,29603,-100,1116.573945
4,519,57,57519,-100,989.026772
4,713,26,26713,-100,1871.038611
4,707,59,59707,-100,1423.095337
4,201,31,31201,-100,2289.434887
4,515,33,33515,-100,1533.08933
4,608,79,79608,-100,1529.419009
4,507,47,47507,-100,1539.655698
4,314,75,75314,-100,1658.241241
4,514,47,47514,-100,1344.657524
4,703,54,54703,-100,2583.559779
4,403,14,14403,70.83333333,5258.571476
4,606,72,72606,-100,1499.621467
4,204,34,34204,100,1910.02599
4,106,31,31106,-100,3114.304559
4,710,65,65710,-100,2455.202413
4,203,44,44203,-100,1181.656549
4,301,59,59301,-100,1626.317696
4,701,15,15701,-100,1089.421907
4,402,38,38402,53.90625,2305.250861
4,604,54,54604,-100,1165.149315
4,210,25,25210,100,1138.482669
4,514,78,78514,-100,1540.947962
4,204,59,59204,-100,4326.547412
4,404,35,35404,-100,2100.803552
4,204,79,79204,-100,1612.925963
4,210,17,17210,-100,1797.571231
4,607,36,36607,-100,1792.790669
4,405,39,39405,-51.04166667,4751.321394
4,406,38,38406,-48.95833333,2307.140205
4,305,39,39305,53.125,3001.327582
4,601,36,36601,-100,2595.108051
4,105,24,24105,100,1060.58247
4,405,65,65405,-100,1111.234639
4,401,49,49401,100,1182.087304
4,709,41,41709,-100,1209.911283
4,202,72,72202,-100,1165.194896
4,110,75,75110,-100,1209.885625
4,511,45,45511,-100,1016.38649
4,513,71,71513,-100,1134.270509
4,611,26,26611,-100,1025.011848
4,104,49,49104,-100,1184.452682
4,611,31,31611,-100,1170.626572
4,505,34,34505,-100,882.1805789
4,506,33,33506,-59.63541667,5057.443424
4,501,69,69501,-100,961.2426384
4,302,66,66302,-100,1559.850157
4,518,73,73518,-100,1245.684453
4,204,22,22204,-100,1320.328484
4,606,15,15606,100,1166.209147
4,704,48,48704,-100,1309.454569
4,310,68,68310,-100,1466.232088
4,310,78,78310,-100,1683.14774
4,703,22,22703,-100,2343.067928
4,502,45,45502,-100,1149.000088
4,102,68,68102,-39.84375,3039.135593
4,102,32,32102,-84.89583333,1125.492108
4,613,78,78613,-100,1413.496781
4,107,39,39107,-100,1640.493059
4,506,72,72506,-100,1473.256983
4,109,61,61109,-100,2332.262534
4,711,65,65711,-100,2808.424017
4,409,38,38409,-16.92708333,2342.585555
4,213,45,45213,-100,2984.185234
4,209,24,24209,100,1520.298298
4,705,35,35705,-49.73958333,3590.017478
4,504,32,32504,-100,1548.793011
4,519,22,22519,-100,1539.873038
4,712,78,78712,100,1297.642471
4,403,46,46403,100,1584.360011
4,519,13,13519,-100,1333.277992
4,517,48,48517,-100,1301.077038
4,312,21,21312,100,1456.292732
4,304,65,65304,-100,1059.679605
4,313,17,17313,-100,1311.497861
4,411,74,74411,0,2955.57521
4,307,44,44307,-100,2230.872769
4,503,25,25503,-40.10416667,5104.822521
4,703,19,19703,-95.57291667,1474.444502
4,207,78,78207,-100,3085.42588
4,705,61,61705,-100,1273.166727
4,513,63,63513,-100,1470.114918
4,310,24,24310,100,1989.321991
4,508,48,48508,-100,1480.019561
4,506,64,64506,-100,1084.370878
4,406,53,53406,-56.25,2201.697663
4,303,56,56303,-100,2400.192587
4,308,55,55308,-100,1867.770972
4,604,49,49604,-100,1321.02548
4,608,29,29608,-100,1673.154954
4,518,58,58518,-100,1184.565276
4,511,27,27511,-100,1462.438609
4,303,47,47303,-100,1156.48381
4,712,19,19712,-100,2353.927354
4,606,21,21606,-100,1226.457457
4,512,14,14512,-100,1646.078381
4,101,61,61101,100,1396.320322
4,302,28,28302,-100,1296.394882
4,211,35,35211,-100,2034.361369
4,510,64,64510,-100,1514.022018
4,106,73,73106,80.46875,1943.661989
4,604,65,65604,100,2195.281319
4,707,43,43707,-100,1485.439162
4,712,41,41712,-100,1378.821477
4,606,31,31606,-100,2084.75907
4,516,41,41516,-100,1499.61543
4,713,74,74713,100,1352.807452
4,513,32,32513,-100,4053.787895
4,614,64,64614,100,2610.276836
4,709,19,19709,-100,1416.705254
4,512,74,74512,-100,1543.358317
4,206,12,12206,-36.45833333,2471.092342
4,707,76,76707,100,2495.874474
4,514,38,38514,-100,1311.18604
4,104,34,34104,-100,1855.237126
4,612,41,41612,-100,1727.262217
4,503,62,62503,0.520833333,5961.756707
4,103,61,61103,14.32291667,4053.137989
4,201,77,77201,-100,1240.858914
4,401,65,65401,-99.47916667,1848.765844
4,705,27,27705,-100,1656.756993
4,411,27,27411,-100,1220.416628
4,307,26,26307,-100,1630.112081
4,613,26,26613,-100,1120.390668
4,608,48,48608,-100,1347.182888
4,306,56,56306,-100,1114.510126
4,314,28,28314,-100,858.0097139
4,607,15,15607,100,1630.704633
4,515,22,22515,-100,1660.672122
4,707,21,21707,-100,1412.71134
4,703,37,37703,-100,3018.1406
4,611,53,53611,-100,2235.281138
4,505,47,47505,-100,1672.778232
4,601,56,56601,-100,1586.128913
4,209,45,45209,-100,1343.594976
4,510,27,27510,-100,2195.050999
4,607,45,45607,-100,972.6451118
4,202,65,65202,-100,1882.929796
4,101,15,15101,100,1155.129664
4,106,49,49106,-100,3749.993812
4,205,14,14205,-97.13541667,2423.099563
4,302,52,52302,68.75,4288.801282
4,511,63,63511,-100,979.7173984
4,614,37,37614,-100,1692.924091
4,604,78,78604,-100,1503.445736
4,212,39,39212,-100,965.0192134
4,710,22,22710,-100,1215.478796
4,109,17,17109,100,2986.448884
4,407,56,56407,-37.23958333,2080.85179
4,707,34,34707,-100,1056.225719
4,209,65,65209,-100,994.8855798
4,308,65,65308,-100,1363.614959
4,314,16,16314,-100,1660.404372
4,603,17,17603,100,1751.262229
4,309,53,53309,100,2303.916035
4,505,51,51505,100,1446.660066
4,408,18,18408,-100,3079.633783
4,406,74,74406,37.5,2023.715056
4,514,27,27514,-100,1597.962141
4,311,62,62311,-100,1714.593741
4,612,71,71612,-100,1692.622231
4,405,19,19405,-65.10416667,1826.715246
4,405,28,28405,-100,1397.08101
4,110,39,39110,-100,3637.089281
4,603,68,68603,100,1059.10426
4,709,71,71709,-100,1521.497891
4,307,75,75307,0.260416667,18.82703096
4,709,39,39709,-100,2180.362474
4,309,45,45309,-67.70833333,3647.035278
4,402,58,58402,-100,2479.093453
4,517,31,31517,-100,2320.242756
4,203,19,19203,-100,2076.776675
4,403,39,39403,55.98958333,2298.234117
4,505,66,66505,-100,2417.708035
4,107,74,74107,-100,2542.697847
4,301,64,64301,-100,1292.67234
4,501,47,47501,-100,1365.244703
4,110,61,61110,-64.0625,2250.952218
4,313,64,64313,-73.69791667,1400.130706
4,609,49,49609,-100,2453.411475
4,212,55,55212,-100,2252.021106
4,108,35,35108,-100,1155.409489
4,407,65,65407,-100,1977.557889
4,508,23,23508,-100,1232.929645
4,609,69,69609,100,1332.041874
4,517,59,59517,53.125,2089.8264
4,208,35,35208,-100,1249.807866
4,610,39,39610,-100,1785.587677
4,706,35,35706,-100,1748.100544
4,106,14,14106,100,3176.895608
4,602,42,42602,-100,1970.727091
4,501,72,72501,-100,1702.720366
4,712,58,58712,-100,1996.451933
4,608,37,37608,-100,1460.334944
4,705,55,55705,-100,4474.151999
4,611,68,68611,100,1170.194609
4,406,65,65406,-100,1217.95073
4,712,25,25712,-100,1430.441712
4,509,52,52509,100,1341.253143
4,504,46,46504,-100,1868.227989
4,205,32,32205,-100,1323.775126
4,501,11,11501,-100,3106.260886
4,108,67,67108,-100,2366.570776
4,303,76,76303,-100,2438.601904
4,105,52,52105,100,1255.465635
4,308,74,74308,-100,1251.133637
4,601,46,46601,-100,1311.973291
4,109,35,35109,-100,2150.125121
4,401,32,32401,100,1695.918546
4,208,52,52208,51.82291667,2741.997833
4,606,61,61606,100,1881.679793
4,308,44,44308,-100,1421.516003
4,504,65,65504,-100,1361.59008
4,611,12,12611,100,1790.911588
4,614,27,27614,-100,1530.75444
4,407,21,21407,-100,1086.226413
4,314,32,32314,100,1121.641879
4,501,59,59501,100,1550.706806
4,103,59,59103,-100,1887.909889
4,703,71,71703,100,2683.205697
4,503,55,55503,28.90625,3175.668545
4,103,18,18103,55.72916667,2473.63129
4,314,43,43314,-100,1271.126754
4,604,38,38604,-100,1354.543451
4,610,78,78610,-100,1187.306168
4,502,56,56502,-64.84375,4750.273033
4,309,61,61309,-100,1323.204006
4,401,24,24401,-63.54166667,3632.905497
4,405,59,59405,-100,1309.309374
4,310,47,47310,-100,1806.759861
4,713,34,34713,-100,2688.556172
4,102,26,26102,0,2827.605432
4,409,53,53409,-13.28125,3874.92778
4,504,76,76504,-100,1677.398507
4,213,69,69213,-100,1452.413525
4,508,78,78508,-100,2063.371961
4,207,63,63207,-100,1905.076386
4,704,27,27704,-100,1199.890425
4,610,24,24610,-100,1035.762303
4,518,19,19518,-100,1309.725337
4,506,41,41506,-100,1586.674676
4,101,43,43101,-100,1313.982172
4,201,58,58201,-100,1364.39557
4,311,11,11311,21.875,3714.606721
4,306,35,35306,100,1687.22859
4,403,58,58403,-41.92708333,2759.519921
4,213,77,77213,-100,1490.38454
4,707,12,12707,-100,1451.282152
4,510,74,74510,-100,2100.757971
4,503,14,14503,-100,1514.897111
4,606,45,45606,-100,2115.029628
4,106,56,56106,-100,1763.117795
4,601,62,62601,100,1291.438334
4,208,29,29208,59.89583333,2178.484902
4,605,26,26605,-100,1440.216555
4,517,12,12517,-100,1381.86755
4,206,76,76206,-100,1530.805152
4,305,29,29305,100,1631.15048
4,303,18,18303,-100,3588.035764
4,507,77,77507,-100,1360.184316
4,311,35,35311,100,1602.390734
4,512,23,23512,-100,1955.953441
4,515,56,56515,52.86458333,2855.470163
4,614,73,73614,-100,978.3952499
4,408,23,23408,-100,1369.957347
4,406,19,19406,54.42708333,1880.863562
4,310,58,58310,100,1228.317521
4,702,68,68702,-100,1029.929455
4,710,19,19710,-100,1701.108431
4,208,62,62208,-100,2394.944141
4,307,55,55307,-100,1631.65338
4,204,46,46204,-100,1515.725416
4,513,19,19513,-100,1209.511318
4,209,36,36209,-100,1379.043646
4,612,54,54612,-100,2172.60255
4,507,67,67507,-100,1182.311586
4,105,18,18105,100,1002.997172
4,612,66,66612,100,1049.058648
4,307,31,31307,100,1343.353789
4,109,79,79109,-100,1451.727396
4,101,51,51101,-100,1545.568539
4,609,55,55609,-100,2180.22392
4,211,22,22211,-100,2105.271086
4,702,34,34702,-100,1876.546657
4,302,38,38302,100,1413.082326
4,713,43,43713,-100,1302.177319
4,614,48,48614,-100,1590.249306
4,605,67,67605,-100,1079.913306
4,409,14,14409,-70.05208333,4852.724743
4,711,33,33711,-38.80208333,1659.044793
4,403,73,73403,-52.60416667,2200.96867
4,310,37,37310,100,1191.31427
4,501,31,31501,-100,1112.177349
4,511,57,57511,71.35416667,2001.378596
4,202,26,26202,61.45833333,1523.380595
4,411,17,17411,21.61458333,2483.391643
4,704,59,59704,-100,1214.010547
4,710,44,44710,-100,1278.422417
4,411,53,53411,-100,946.102228
4,604,18,18604,-100,1557.21884
4,110,58,58110,-100,3446.05876
4,608,65,65608,100,1103.612061
4,102,41,41102,-100,1256.559275
4,309,26,26309,98.17708333,1773.074961
4,609,12,12609,-100,3888.447502
4,209,75,75209,-100,2135.493346
4,710,74,74710,100,1122.490408
4,305,73,73305,-100,1364.766556
4,506,27,27506,-100,1436.052391
4,607,55,55607,-100,998.6367986
4,405,78,78405,83.85416667,1531.176742
4,602,32,32602,-100,1170.032812
4,514,17,17514,-100,1256.807404
4,514,61,61514,-100,1187.305866
4,411,38,38411,-100,1238.530363
4,201,67,67201,-100,1252.059442
4,203,39,39203,-100,1122.363627
4,507,11,11507,-100,1063.877879
4,301,19,19301,-100,1862.417479
4,203,55,55203,-100,1980.351607
4,708,46,46708,-100,1419.772759
4,207,43,43207,-100,1903.571612
4,708,51,51708,-100,1417.66668
4,510,58,58510,100,3292.650908
4,701,62,62701,-100,1887.556108
4,510,44,44510,-100,1338.581679
4,107,16,16107,100,1723.306639
4,701,39,39701,-100,1039.578724
4,517,75,75517,-100,1298.130277
4,306,69,69306,-100,1436.896694
4,402,63,63402,-100,2021.338811
4,304,24,24304,-100,4666.412601
4,511,37,37511,-100,1146.598185
4,509,61,61509,-100,967.043489
4,403,67,67403,-100,1130.535591
4,503,34,34503,-100,1321.138074
4,402,48,48402,100,1177.915896
4,512,54,54512,100,1919.57655
4,108,53,53108,-100,1092.242189
4,201,49,49201,-100,1468.621615
4,108,17,17108,100,1383.588758
4,513,24,24513,-100,3010.611901
4,203,21,21203,100,1046.390203
4,410,17,17410,-11.45833333,3057.202841
4,304,16,16304,-100,1804.057909
5,305,62,62305,63.02083333,11112.67512
5,601,67,67601,94.79166667,3512.579729
5,609,67,67609,87.23958333,8957.914628
5,708,71,71708,100,2032.744605
5,709,35,35709,-60.9375,2697.345138
5,208,79,79208,-88.80208333,3465.78292
5,705,62,62705,-96.35416667,3765.386276
5,713,47,47713,36.45833333,3976.643856
5,606,76,76606,-85.41666667,4228.087201
5,518,26,26518,-100,2357.92791
5,508,45,45508,-80.72916667,2485.159639
5,607,26,26607,-67.96875,1159.883965
5,614,64,64614,91.92708333,1942.898886
5,503,31,31503,-100,1658.801192
5,712,33,33712,-100,2073.95428
5,704,46,46704,-100,1815.823822
5,203,26,26203,100,1091.752269
5,401,29,29401,-79.6875,1971.533058
5,309,69,69309,-93.22916667,2512.478304
5,706,41,41706,-86.97916667,3177.038689
5,707,46,46707,-94.79166667,1628.875963
5,401,36,36401,-84.63541667,2586.234262
5,312,65,65312,-92.96875,1930.542534
5,210,14,14210,10.9375,4159.856496
5,402,25,25402,-94.53125,1830.018806
5,609,17,17609,90.625,2164.285995
5,110,49,49110,-93.22916667,3029.520736
5,204,11,11204,-92.96875,2648.5965
5,703,78,78703,100,1878.380459
5,302,46,46302,-100,1736.022809
5,519,69,69519,0,828.7573315
5,202,11,11202,-53.125,3802.332475
5,506,53,53506,67.1875,1877.890539
5,104,61,61104,65.625,1706.916225
5,707,25,25707,38.54166667,4217.010435
5,510,47,47510,-75,1578.582705
5,609,23,23609,-50,1342.85572
5,307,23,23307,-91.40625,1472.493276
5,604,43,43604,-90.36458333,1806.231907
5,613,75,75613,-88.80208333,1645.018247
5,405,37,37405,9.114583333,2697.797929
5,514,35,35514,-89.0625,1864.760821
5,517,74,74517,-88.54166667,1427.959213
5,203,69,69203,-76.82291667,1337.521545
5,403,79,79403,63.02083333,3738.492932
5,101,46,46101,-55.72916667,3583.529593
5,306,62,62306,-71.09375,12509.09354
5,511,36,36511,-85.15625,2492.298938
5,704,14,14704,-70.3125,2250.583647
5,106,79,79106,-80.46875,1368.608635
5,211,73,73211,-59.11458333,1222.629566
5,201,77,77201,-72.65625,1406.754428
5,303,65,65303,-69.53125,1210.99949
5,314,72,72314,-97.13541667,1128.683678
5,706,37,37706,-38.02083333,1675.66613
5,106,21,21106,68.22916667,2422.129383
5,205,22,22205,78.64583333,1649.70795
5,710,71,71710,100,1681.969277
5,510,78,78510,-63.02083333,1006.780991
5,102,78,78102,-83.85416667,1559.734846
5,710,32,32710,-75,2100.620625
5,608,54,54608,0,966.2849139
5,704,72,72704,-1.5625,18.87502678
5,507,26,26507,-85.67708333,1715.044721
5,207,69,69207,-100,1501.739319
5,613,63,63613,100,1188.285403
5,314,49,49314,-85.41666667,1698.550165
5,610,64,64610,100,1148.252379
5,509,52,52509,16.40625,2188.962778
5,406,26,26406,25,1869.930783
5,109,39,39109,-100,1862.145805
5,109,46,46109,14.58333333,1526.040588
5,601,41,41601,-100,1109.175348
5,405,54,54405,-34.63541667,4146.00684
5,701,42,42701,32.55208333,2715.677118
5,106,13,13106,100,1381.712695
5,103,41,41103,-33.85416667,2342.837004
5,504,29,29504,-34.63541667,1883.264861
5,302,58,58302,-30.72916667,1310.460971
5,705,34,34705,-16.40625,2020.924961
5,602,38,38602,-97.91666667,2052.271348
5,301,47,47301,-41.40625,1887.567277
5,713,26,26713,-73.69791667,1656.320805
5,605,54,54605,-100,1287.936452
5,606,44,44606,-76.5625,1086.698221
5,707,61,61707,-100,1035.074363
5,602,54,54602,-60.15625,918.2622503
5,505,35,35505,-100,764.7695749
5,106,55,55106,9.114583333,2972.18568
5,106,46,46106,-66.40625,1066.161151
5,307,15,15307,-100,1234.121994
5,106,68,68106,100,1415.695833
5,207,71,71207,-84.11458333,2705.055859
5,314,15,15314,100,1752.942988
5,515,56,56515,100,1990.961697
5,207,42,42207,-76.30208333,2418.139091
5,604,26,26604,-100,1364.751463
5,502,51,51502,69.01041667,4134.987428
5,312,16,16312,46.35416667,1418.404125
5,518,58,58518,48.95833333,2897.822681
5,606,35,35606,-87.5,1950.693826
5,102,54,54102,-92.44791667,6158.388549
5,706,12,12706,-93.48958333,1824.565095
5,611,11,11611,60.15625,2335.247329
5,210,27,27210,100,1201.419951
5,611,48,48611,-100,913.1671491
5,411,33,33411,1.302083333,1108.667619
5,403,12,12403,100,1584.131201
5,505,64,64505,100,1031.753899
5,408,38,38408,-100,1171.472384
5,612,78,78612,-100,823.6794363
5,501,36,36501,29.6875,2647.917013
5,502,29,29502,-50.26041667,2085.924251
5,411,49,49411,-31.51041667,1607.204803
5,608,62,62608,100,1711.694071
5,518,46,46518,-81.25,4461.623284
5,603,75,75603,-68.22916667,3767.332671
5,518,61,61518,-71.875,2113.06663
5,606,29,29606,-79.6875,2086.340215
5,713,55,55713,-40.88541667,4211.53016
5,712,17,17712,-63.28125,1491.877541
5,508,31,31508,-49.73958333,2338.73593
5,608,13,13608,65.625,4883.935595
5,202,46,46202,-61.97916667,1734.673795
5,406,12,12406,-62.76041667,2215.996788
5,212,56,56212,-51.30208333,1821.49759
5,210,44,44210,-54.6875,1400.451583
5,503,17,17503,-67.96875,1874.367225
5,411,76,76411,-21.875,3575.470223
5,606,54,54606,-49.47916667,3273.076168
5,211,53,53211,46.61458333,1495.588009
5,308,44,44308,-32.29166667,2534.900492
5,313,49,49313,41.40625,2435.224086
5,707,35,35707,-47.91666667,6013.773587
5,105,44,44105,-27.34375,1519.097498
5,311,25,25311,-48.17708333,5278.041168
5,712,79,79712,74.73958333,12110.35773
5,514,22,22514,-57.03125,1362.053133
5,702,28,28702,-61.19791667,1466.659221
5,519,11,11519,-57.8125,1875.196436
5,204,64,64204,-63.02083333,4484.347936
5,407,47,47407,82.03125,1398.289961
5,511,44,44511,-40.625,690.9460002
5,614,36,36614,-15.36458333,1437.111619
5,212,25,25212,70.83333333,1118.647122
5,705,11,11705,-61.97916667,1237.702058
5,206,26,26206,100,4108.156267
5,517,56,56517,29.94791667,3730.020919
5,711,26,26711,-60.67708333,4069.509084
5,507,64,64507,-80.46875,4395.317844
5,201,65,65201,-46.09375,6713.445464
5,201,27,27201,-52.08333333,1616.205072
5,506,38,38506,42.70833333,1661.560799
5,403,41,41403,29.42708333,1741.212996
5,511,61,61511,-100,2033.872355
5,605,36,36605,-71.61458333,1879.835124
5,209,77,77209,-42.1875,9971.150903
5,709,79,79709,77.34375,14010.64269
5,606,12,12606,18.75,2650.117273
5,312,74,74312,-60.9375,2200.697901
5,303,57,57303,-30.72916667,3541.789549
5,108,64,64108,36.97916667,3171.335943
5,101,68,68101,35.67708333,3776.331431
5,108,53,53108,30.98958333,3983.463485
5,409,12,12409,-31.77083333,4108.147815
5,205,57,57205,27.86458333,4547.765177
5,411,52,52411,-53.125,5118.477779
5,508,68,68508,-57.8125,5554.231026
5,212,37,37212,-63.28125,3088.882785
5,613,14,14613,-68.75,3370.763918
5,310,41,41310,53.125,1942.186797
5,511,52,52511,50.52083333,3296.829862
5,312,53,53312,38.54166667,5025.06407
5,309,58,58309,35.41666667,5533.099895
5,405,66,66405,-39.32291667,1546.587318
5,311,53,53311,29.6875,19506.3113
5,209,53,53209,-71.61458333,15934.49328
5,210,34,34210,-97.91666667,15594.41619
5,702,19,19702,-81.77083333,3021.91959
5,711,69,69711,-79.16666667,13807.24163
5,304,75,75304,-91.14583333,1321.954003
5,205,46,46205,-81.51041667,865.2437975
5,508,17,17508,-72.13541667,848.8977569
5,710,41,41710,-80.46875,1867.495374
5,209,46,46209,-80.98958333,893.7889211
5,612,11,11612,78.64583333,3299.59762
5,514,44,44514,-52.08333333,1997.804268
5,310,25,25310,44.27083333,3122.25375
5,105,11,11105,81.51041667,2383.142608
5,206,51,51206,82.55208333,2385.12251
5,109,59,59109,40.10416667,2363.876672
5,301,25,25301,-82.03125,1231.311976
5,307,44,44307,-72.65625,4245.663625
5,306,54,54306,-82.8125,2255.782588
5,508,22,22508,-88.02083333,1178.356914
5,310,52,52310,94.01041667,987.3324298
5,607,44,44607,-100,1422.536895
5,404,64,64404,2.34375,903.7602746
5,519,28,28519,-62.5,1253.866077
5,305,45,45305,-76.82291667,1470.54688
5,601,55,55601,-79.16666667,1130.301045
5,306,22,22306,-84.375,1134.883286
5,108,38,38108,-55.46875,1210.234576
5,406,47,47406,40.36458333,1274.024614
5,101,78,78101,-83.85416667,1363.538286
5,503,46,46503,-73.17708333,1138.987379
5,110,79,79110,-77.86458333,1021.642483
5,711,49,49711,-89.32291667,1527.383263
5,403,63,63403,-35.15625,1305.699426
5,105,66,66105,72.39583333,2302.274518
5,503,67,67503,-98.17708333,1839.545217
5,505,75,75505,-23.95833333,1563.849806
5,513,38,38513,-55.46875,1833.612755
5,101,52,52101,-87.5,1139.969331
5,604,52,52604,-75.78125,1352.044349
5,402,71,71402,-70.83333333,1673.981146
5,212,42,42212,-100,1208.715011
5,516,35,35516,-100,989.4581305
5,408,15,15408,-67.70833333,1990.79024
5,308,14,14308,-72.39583333,1566.672503
5,602,43,43602,-96.35416667,1715.525584
5,507,71,71507,-90.88541667,2023.551146
5,408,68,68408,-82.29166667,1248.337504
5,208,16,16208,-32.29166667,1671.751907
5,614,15,15614,61.45833333,1817.3292
5,706,73,73706,85.41666667,3257.095681
5,403,58,58403,-45.3125,1470.002928
5,313,18,18313,-51.04166667,1705.368587
5,307,58,58307,-87.76041667,1415.490266
5,504,15,15504,-61.97916667,1544.100592
5,408,29,29408,-83.85416667,1449.394317
5,409,58,58409,-100,2915.167276
5,516,11,11516,-100,1658.081557
5,712,63,63712,-68.22916667,1898.54292
5,401,68,68401,-79.6875,1225.888149
5,705,74,74705,46.35416667,1692.920771
5,205,35,35205,-68.48958333,1429.278644
5,205,19,19205,-79.94791667,1898.511527
5,505,49,49505,-73.4375,1495.91432
5,406,57,57406,11.45833333,2249.483366
5,611,76,76611,-100,1664.158609
5,404,59,59404,-65.10416667,1061.2526
5,409,65,65409,-72.13541667,1761.132459
5,302,12,12302,-90.88541667,1403.227793
5,516,53,53516,17.96875,1708.955593
5,303,73,73303,-49.73958333,1873.187253
5,207,36,36207,-78.90625,2417.683282
5,309,41,41309,50.52083333,1835.331246
5,611,61,61611,47.65625,1617.561632
5,213,12,12213,79.16666667,2206.644852
5,511,29,29511,-50,1710.806299
5,702,48,48702,-34.63541667,1497.776195
5,613,57,57613,-72.91666667,1963.436258
5,110,39,39110,-41.40625,1495.569897
5,311,39,39311,41.40625,2622.382644
5,403,29,29403,-45.57291667,2166.861165
5,507,12,12507,-35.67708333,4010.096022
5,304,59,59304,41.66666667,1274.459896
5,213,55,55213,-50,1301.039305
5,506,71,71506,-63.28125,1223.122504
5,306,13,13306,-65.36458333,1237.825821
5,109,79,79109,-63.80208333,1847.990063
5,303,18,18303,-58.85416667,8223.160237
5,206,11,11206,-45.57291667,2057.427425
5,407,26,26407,-69.53125,978.5830071
5,302,78,78302,-51.5625,1320.287733
5,203,33,33203,-23.17708333,941.1299841
5,507,31,31507,-18.22916667,614.8128919
5,510,23,23510,-57.8125,754.7118894
5,506,61,61506,-69.27083333,708.7095772
5,708,15,15708,-76.82291667,890.738924
5,515,14,14515,-65.625,740.7200577
5,515,64,64515,-31.77083333,701.6686841
5,519,78,78519,-79.6875,1008.617812
5,703,34,34703,-44.79166667,1189.758783
5,513,53,53513,-39.84375,791.5418725
5,703,61,61703,-43.75,992.6946773
5,103,52,52103,-50.52083333,1051.226006
5,612,43,43612,-88.02083333,1160.216615
5,508,51,51508,38.28125,1088.253406
5,107,17,17107,100,2011.044769
5,402,51,51402,-61.97916667,1101.458891
5,306,46,46306,-65.36458333,1223.958054
5,410,14,14410,-44.27083333,1103.70111
5,514,73,73514,-35.41666667,962.877816
5,108,76,76108,-28.125,812.832386
5,518,13,13518,-44.27083333,1787.077961
5,707,51,51707,-65.10416667,1247.387851
5,711,15,15711,-52.34375,1480.364285
5,309,72,72309,-98.4375,1387.111166
5,313,78,78313,-59.63541667,974.4122024
5,107,66,66107,55.20833333,3021.369601
5,604,78,78604,-70.83333333,2506.970861
5,314,37,37314,68.48958333,6837.015627
5,702,58,58702,-75.78125,1293.980301
5,209,36,36209,-41.40625,1073.529865
5,516,27,27516,-37.76041667,1782.328189
5,105,27,27105,-34.375,3762.780919
5,516,73,73516,-56.51041667,1525.091539
5,209,65,65209,-29.94791667,1349.816922
5,201,48,48201,-84.89583333,2442.393572
5,405,41,41405,100,4579.119715
5,713,65,65713,-100,969.0396916
5,204,44,44204,-27.86458333,899.4545383
5,609,39,39609,-35.41666667,1816.71582
5,713,36,36713,-58.33333333,3803.272468
5,203,49,49203,-43.75,928.8946779
5,703,26,26703,44.79166667,1563.787019
5,701,28,28701,25.26041667,1893.48857
5,408,55,55408,-37.23958333,1654.255175
5,304,45,45304,8.072916667,2767.330558
5,201,12,12201,-44.01041667,2772.923125
5,502,66,66502,-46.35416667,5668.716701
5,602,69,69602,59.375,2158.160342
5,304,15,15304,-80.72916667,4921.106379
5,519,45,45519,-73.69791667,954.7647149
5,401,78,78401,34.11458333,1330.686521
5,301,51,51301,-49.73958333,971.4421983
5,515,78,78515,-74.21875,1036.836624
5,108,21,21108,21.875,1432.296041
5,212,65,65212,-79.42708333,1003.195192
5,103,67,67103,3.125,1097.254882
5,610,76,76610,-54.16666667,1432.970698
5,404,15,15404,-72.39583333,5459.480378
5,502,33,33502,-29.94791667,952.4020539
5,505,26,26505,-45.3125,2498.899115
5,517,39,39517,-33.59375,1713.734647
5,310,37,37310,72.39583333,4179.931115
5,702,39,39702,-61.19791667,1163.361698
5,205,71,71205,-96.35416667,1029.617633
5,607,55,55607,-62.5,1020.016965
5,509,11,11509,-100,782.573903
5,103,75,75103,-25,801.3997265
5,605,27,27605,-20.83333333,1788.621374
5,305,52,52305,-100,6139.56997
